,owner__participant__code,owner__session__code,owner__round_number,name,timestamp,body,owner__gamified,owner__crash_probability,owner__training,owner__exit_price,owner__subsession__starting_price,owner__subsession__max_length,current_price,priceIndex,secs_since_round_starts,subsession.tick_frequency,exit_crash,exit_sell,exit_hodl,mindchanges,exit_correct,gamified_first,player.gender,player.age,player.education,participant.payoff,FinScore,player.study_major,player.course_financial,player.trading_experience,player.online_trading_experience,player.trading_frequency,player.portfolio_frequency,player.asset_class,player.use_leverage,player.nationality,censoring,censoring_price
0,r9gp2bpz,tcbozsj9,2,Trade_ends,2021-11-17 17:12:21.394181+00:00,"{""currentPrice"": 0, ""priceIndex"": 5, ""secs_since_round_starts"": 10}",False,0.02,False,0.0,10.0,30.0,0,5,10,2.0,1,0,0,0,1,0,Male,51.0,master,40,8,Finance,1.0,1.0,0.0,Less than once a month,Weekly,Stocks,No,GB,10,0.0
2,qkwv9q2a,tcbozsj9,2,Trade_ends,2021-11-17 17:12:56.581275+00:00,"{""currentPrice"": 0, ""priceIndex"": 5, ""secs_since_round_starts"": 10}",True,0.02,False,0.0,10.0,30.0,0,5,10,2.0,1,0,0,0,1,1,Male,24.0,master,6,6,Other,0.0,1.0,1.0,Weekly,Weekly,Stocks,No,GB,10,0.0
12,xf9m51xx,tcbozsj9,2,Trade_ends,2021-11-17 17:15:35.716603+00:00,"{""currentPrice"": 43, ""priceIndex"": 30, ""secs_since_round_starts"": 60}",True,0.02,False,43.0,10.0,30.0,43,30,60,2.0,0,0,1,0,1,1,Female,26.0,master,24,4,Other,0.0,1.0,1.0,Weekly,Weekly,Stocks,Do not know,GB,60,1000.0
21,pd1jf59e,tcbozsj9,2,Trade_ends,2021-11-17 17:17:21.331956+00:00,"{""currentPrice"": 33, ""priceIndex"": 27, ""secs_since_round_starts"": 59}",False,0.02,False,33.0,10.0,30.0,33,27,59,2.0,0,1,0,0,1,0,Female,57.0,MBA,6,6,Other,0.0,0.0,0.0,Less than once a month,Monthly,Stocks,Do not know,GB,1000,1000.0
26,s1t7vxc5,tcbozsj9,2,Trade_ends,2021-11-17 17:18:16.622935+00:00,"{""currentPrice"": 0, ""priceIndex"": 18, ""secs_since_round_starts"": 36}",False,0.02,False,0.0,10.0,30.0,0,18,36,2.0,1,0,0,0,1,0,Female,46.0,master,24,10,Other,0.0,1.0,0.0,Weekly,Daily,Stocks,No,GB,36,0.0
40,x6h6vcwo,xm39f2ij,2,Trade_ends,2021-11-17 17:22:21.443648+00:00,"{""currentPrice"": 42, ""priceIndex"": 30, ""secs_since_round_starts"": 60}",False,0.02,False,42.0,10.0,30.0,42,30,60,2.0,0,0,1,0,1,0,Female,31.0,undergraduate: 2nd year,2,2,Other,0.0,1.0,0.0,Less than once a month,Less than once a month,Stocks,No,GB,60,1000.0
42,gspyeh5h,tcbozsj9,2,Trade_ends,2021-11-17 17:23:31.894412+00:00,"{""currentPrice"": 22, ""priceIndex"": 14, ""secs_since_round_starts"": 29}",True,0.02,False,22.0,10.0,30.0,22,14,29,2.0,0,1,0,0,1,1,Male,40.0,master,31,7,Other Management,1.0,1.0,1.0,Monthly,Daily,Stocks,No,ES,1000,1000.0
46,sjpagngy,tcbozsj9,2,Trade_ends,2021-11-17 17:24:10.009951+00:00,"{""currentPrice"": 0, ""priceIndex"": 8, ""secs_since_round_starts"": 32}",True,0.02,False,0.0,10.0,30.0,0,8,32,2.0,1,0,0,1,1,1,Male,50.0,master,25,6,Other,0.0,0.0,0.0,Less than once a month,Weekly,Stocks,No,GB,32,0.0
54,t7ukc19m,tcbozsj9,2,Trade_ends,2021-11-17 17:25:02.718162+00:00,"{""currentPrice"": 13, ""priceIndex"": 4, ""secs_since_round_starts"": 10}",False,0.02,False,13.0,10.0,30.0,13,4,10,2.0,0,1,0,0,1,0,Female,60.0,master,7,7,Other,0.0,1.0,0.0,Less than once a month,Weekly,Stocks,No,GB,1000,1000.0
55,hnet66cj,xm39f2ij,2,Trade_ends,2021-11-17 17:25:03.049299+00:00,"{""currentPrice"": 0, ""priceIndex"": 9, ""secs_since_round_starts"": 18}",False,0.02,False,0.0,10.0,30.0,0,9,18,2.0,1,0,0,0,1,0,Female,26.0,high-school graduate,6,6,Other,0.0,0.0,0.0,Less than once a month,Less than once a month,Cryptocurrencies,Do not know,GB,18,0.0
69,7ebksmn6,tcbozsj9,2,Trade_ends,2021-11-17 17:25:57.111426+00:00,"{""currentPrice"": 31, ""priceIndex"": 14, ""secs_since_round_starts"": 30}",False,0.02,False,31.0,10.0,30.0,31,14,30,2.0,0,1,0,0,1,0,Male,24.0,master,25,8,Other,0.0,1.0,1.0,Monthly,Weekly,Stocks,Do not know,GB,1000,1000.0
73,6fd1vesp,xm39f2ij,2,Trade_ends,2021-11-17 17:26:16.818516+00:00,"{""currentPrice"": 25, ""priceIndex"": 12, ""secs_since_round_starts"": 28}",True,0.02,False,25.0,10.0,30.0,25,12,28,2.0,0,1,0,0,1,1,Male,59.0,high-school graduate,7,7,Other,0.0,0.0,0.0,Less than once a month,Less than once a month,Cryptocurrencies,No,GB,1000,1000.0
85,n2yva9t6,xm39f2ij,2,Trade_ends,2021-11-17 17:27:44.886722+00:00,"{""currentPrice"": 0, ""priceIndex"": 12, ""secs_since_round_starts"": 24}",False,0.02,False,0.0,10.0,30.0,0,12,24,2.0,1,0,0,0,1,0,Male,27.0,undergraduate: 4th year,7,7,Other,0.0,1.0,0.0,Less than once a month,Monthly,Stocks,No,CA,24,0.0
86,lzac8r5j,tcbozsj9,2,Trade_ends,2021-11-17 17:27:48.192723+00:00,"{""currentPrice"": 19, ""priceIndex"": 11, ""secs_since_round_starts"": 24}",False,0.02,False,19.0,10.0,30.0,19,11,24,2.0,0,1,0,0,1,0,Male,32.0,PhD,16,4,Other,0.0,1.0,1.0,Monthly,Less than once a month,Bonds,No,GB,1000,1000.0
102,qn2tqknk,xm39f2ij,2,Trade_ends,2021-11-17 17:28:56.334814+00:00,"{""currentPrice"": 38, ""priceIndex"": 30, ""secs_since_round_starts"": 60}",True,0.02,False,38.0,10.0,30.0,38,30,60,2.0,0,0,1,0,1,1,Female,42.0,undergraduate: 2nd year,49,5,Other,0.0,1.0,1.0,Weekly,Daily,Stocks,No,US,60,1000.0
108,ukijph7d,xm39f2ij,2,Trade_ends,2021-11-17 17:29:44.010172+00:00,"{""currentPrice"": 0, ""priceIndex"": 13, ""secs_since_round_starts"": 26}",True,0.02,False,0.0,10.0,30.0,0,13,26,2.0,1,0,0,0,1,1,Male,26.0,undergraduate: 2nd year,8,8,Other,0.0,1.0,1.0,Less than once a month,Weekly,Stocks,No,GB,26,0.0
113,fckp7nk6,xm39f2ij,2,Trade_ends,2021-11-17 17:30:17.283843+00:00,"{""currentPrice"": 0, ""priceIndex"": 16, ""secs_since_round_starts"": 32}",False,0.02,False,0.0,10.0,30.0,0,16,32,2.0,1,0,0,0,1,0,Male,34.0,undergraduate: 4th year,22,6,Other,0.0,1.0,1.0,Less than once a month,Less than once a month,Stocks,No,CA,32,0.0
114,5rlkxybf,tcbozsj9,2,Trade_ends,2021-11-17 17:30:34.689707+00:00,"{""currentPrice"": 18, ""priceIndex"": 6, ""secs_since_round_starts"": 13}",False,0.02,False,18.0,10.0,30.0,18,6,13,2.0,0,1,0,0,1,0,Female,53.0,master,23,5,Other,0.0,0.0,0.0,Less than once a month,Less than once a month,Stocks,No,GB,1000,1000.0
117,3q7w2q92,xm39f2ij,2,Trade_ends,2021-11-17 17:30:46.184648+00:00,"{""currentPrice"": 13, ""priceIndex"": 3, ""secs_since_round_starts"": 8}",True,0.02,False,13.0,10.0,30.0,13,3,8,2.0,0,1,0,0,1,1,Female,37.0,undergraduate: 4th year,25,10,Other,0.0,1.0,1.0,Weekly,Multiple times a day,Stocks,No,LV,1000,1000.0
118,lp1ktm6e,tcbozsj9,2,Trade_ends,2021-11-17 17:30:53.155255+00:00,"{""currentPrice"": 23, ""priceIndex"": 14, ""secs_since_round_starts"": 30}",False,0.02,False,23.0,10.0,30.0,23,14,30,2.0,0,1,0,0,1,0,Male,34.0,master,30,7,Other,0.0,0.0,0.0,Less than once a month,Less than once a month,Cryptocurrencies,No,GB,1000,1000.0
129,fjwkepy9,tcbozsj9,2,Trade_ends,2021-11-17 17:31:22.918403+00:00,"{""currentPrice"": 0, ""priceIndex"": 5, ""secs_since_round_starts"": 10}",True,0.02,False,0.0,10.0,30.0,0,5,10,2.0,1,0,0,0,1,1,Female,25.0,master,8,8,Other,0.0,1.0,1.0,Less than once a month,Weekly,Stocks,No,GB,10,0.0
130,2viqvnbq,tcbozsj9,2,Trade_ends,2021-11-17 17:31:23.620553+00:00,"{""currentPrice"": 0, ""priceIndex"": 7, ""secs_since_round_starts"": 14}",True,0.02,False,0.0,10.0,30.0,0,7,14,2.0,1,0,0,0,1,1,Female,45.0,PhD,8,8,Other,0.0,1.0,0.0,Less than once a month,Daily,Cryptocurrencies,No,GB,14,0.0
131,dkehpy51,tcbozsj9,2,Trade_ends,2021-11-17 17:31:29.478377+00:00,"{""currentPrice"": 24, ""priceIndex"": 14, ""secs_since_round_starts"": 31}",True,0.02,False,24.0,10.0,30.0,24,14,31,2.0,0,1,0,0,1,1,Female,50.0,PhD,24,7,Other,0.0,0.0,1.0,Less than once a month,Less than once a month,Stocks,No,GB,1000,1000.0
154,yfb9i7lp,tcbozsj9,2,Trade_ends,2021-11-17 17:32:21.623348+00:00,"{""currentPrice"": 18, ""priceIndex"": 7, ""secs_since_round_starts"": 16}",True,0.02,False,18.0,10.0,30.0,18,7,16,2.0,0,1,0,0,1,1,Male,44.0,master,28,11,Other,0.0,1.0,1.0,Daily,Daily,Stocks,Yes,GB,1000,1000.0
173,2yc2dnx4,xm39f2ij,2,Trade_ends,2021-11-17 17:33:05.322577+00:00,"{""currentPrice"": 0, ""priceIndex"": 15, ""secs_since_round_starts"": 30}",False,0.02,False,0.0,10.0,30.0,0,15,30,2.0,1,0,0,0,1,0,Female,38.0,undergraduate: 4th year,10,10,Finance,1.0,1.0,0.0,Daily,Daily,Stocks,No,CA,30,0.0
183,ns6o6iog,xm39f2ij,2,Trade_ends,2021-11-17 17:33:37.569598+00:00,"{""currentPrice"": 39, ""priceIndex"": 30, ""secs_since_round_starts"": 60}",False,0.02,False,39.0,10.0,30.0,39,30,60,2.0,0,0,1,0,1,0,Female,36.0,high-school graduate,44,7,Other,0.0,1.0,0.0,Monthly,Monthly,Stocks,No,GB,60,1000.0
192,c8pbk5uk,tcbozsj9,3,Trade_ends,2021-11-17 17:34:18.436680+00:00,"{""currentPrice"": 34, ""priceIndex"": 22, ""secs_since_round_starts"": 47}",True,0.05,False,34.0,10.0,30.0,34,22,47,2.0,0,1,0,0,1,1,Male,41.0,master,8,8,Other,0.0,1.0,1.0,Monthly,Weekly,Stocks,No,GB,1000,1000.0
195,n779o0ut,xm39f2ij,2,Trade_ends,2021-11-17 17:34:26.156191+00:00,"{""currentPrice"": 19, ""priceIndex"": 12, ""secs_since_round_starts"": 27}",True,0.02,False,19.0,10.0,30.0,19,12,27,2.0,0,1,0,0,1,1,Female,37.0,undergraduate: 3d year,25,9,Other,0.0,1.0,0.0,Less than once a month,Daily,Stocks,No,GB,1000,1000.0
198,wfgqcqq1,xm39f2ij,2,Trade_ends,2021-11-17 17:34:36.487478+00:00,"{""currentPrice"": 12, ""priceIndex"": 4, ""secs_since_round_starts"": 10}",True,0.02,False,12.0,10.0,30.0,12,4,10,2.0,0,1,0,0,1,1,Female,55.0,high-school graduate,18,6,Other,0.0,1.0,0.0,Less than once a month,Less than once a month,Stocks,Do not know,GB,1000,1000.0
205,g55an9bs,tcbozsj9,2,Trade_ends,2021-11-17 17:35:06.108154+00:00,"{""currentPrice"": 18, ""priceIndex"": 8, ""secs_since_round_starts"": 19}",True,0.02,False,18.0,10.0,30.0,18,8,19,2.0,0,1,0,0,1,1,Female,44.0,undergraduate: 4th year,22,7,Other Management,0.0,0.0,0.0,Less than once a month,Less than once a month,Stocks,No,GB,1000,1000.0
215,stvlmepj,tcbozsj9,2,Trade_ends,2021-11-17 17:35:40.978866+00:00,"{""currentPrice"": 12, ""priceIndex"": 4, ""secs_since_round_starts"": 11}",False,0.02,False,12.0,10.0,30.0,12,4,11,2.0,0,1,0,0,1,0,Female,24.0,master,35,9,Economics,1.0,1.0,1.0,Weekly,Daily,Bonds,No,CN,1000,1000.0
218,0r2yaece,xm39f2ij,2,Trade_ends,2021-11-17 17:35:49.809694+00:00,"{""currentPrice"": 28, ""priceIndex"": 14, ""secs_since_round_starts"": 31}",True,0.02,False,28.0,10.0,30.0,28,14,31,2.0,0,1,0,0,1,1,Female,55.0,undergraduate: 2nd year,6,6,Finance,0.0,1.0,0.0,Less than once a month,Weekly,Stocks,No,GB,1000,1000.0
219,te4hnjkl,tcbozsj9,2,Trade_ends,2021-11-17 17:35:51.448267+00:00,"{""currentPrice"": 0, ""priceIndex"": 5, ""secs_since_round_starts"": 10}",True,0.02,False,0.0,10.0,30.0,0,5,10,2.0,1,0,0,0,1,1,Male,39.0,master,26,6,Other,0.0,1.0,1.0,Monthly,Weekly,Stocks,No,GB,10,0.0
240,inxcivkq,tcbozsj9,2,Trade_ends,2021-11-17 17:37:04.339562+00:00,"{""currentPrice"": 41, ""priceIndex"": 30, ""secs_since_round_starts"": 60}",False,0.02,False,41.0,10.0,30.0,41,30,60,2.0,0,0,1,0,1,0,Female,34.0,master,9,9,Economics,1.0,0.0,0.0,Less than once a month,Less than once a month,Cryptocurrencies,No,MX,60,1000.0
251,yahu2to0,tcbozsj9,2,Trade_ends,2021-11-17 17:37:41.869590+00:00,"{""currentPrice"": 35, ""priceIndex"": 23, ""secs_since_round_starts"": 51}",True,0.02,False,35.0,10.0,30.0,35,23,51,2.0,0,1,0,0,1,1,Male,34.0,master,36,6,Other,0.0,0.0,0.0,Less than once a month,Less than once a month,Bonds,No,CA,1000,1000.0
255,ujvcyj22,xm39f2ij,2,Trade_ends,2021-11-17 17:37:47.126021+00:00,"{""currentPrice"": 0, ""priceIndex"": 8, ""secs_since_round_starts"": 16}",False,0.02,False,0.0,10.0,30.0,0,8,16,2.0,1,0,0,0,1,0,Female,57.0,undergraduate: 4th year,30,10,Other,0.0,0.0,0.0,Less than once a month,Less than once a month,Bonds,No,GB,16,0.0
257,7bvk886t,xm39f2ij,2,Trade_ends,2021-11-17 17:37:51.344041+00:00,"{""currentPrice"": 11, ""priceIndex"": 2, ""secs_since_round_starts"": 7}",False,0.02,False,11.0,10.0,30.0,11,2,7,2.0,0,1,0,0,1,0,Female,56.0,undergraduate: 3d year,20,8,Other Management,0.0,1.0,0.0,Less than once a month,Less than once a month,Stocks,No,GB,1000,1000.0
259,c791yh5e,xm39f2ij,2,Trade_ends,2021-11-17 17:37:53.448843+00:00,"{""currentPrice"": 18, ""priceIndex"": 8, ""secs_since_round_starts"": 20}",True,0.02,False,18.0,10.0,30.0,18,8,20,2.0,0,1,0,0,1,1,Female,55.0,undergraduate: 3d year,25,8,Other,0.0,0.0,0.0,Less than once a month,Monthly,Stocks,No,GB,1000,1000.0
262,ius3yrmf,tcbozsj9,2,Trade_ends,2021-11-17 17:38:03.956890+00:00,"{""currentPrice"": 40, ""priceIndex"": 30, ""secs_since_round_starts"": 60}",False,0.02,False,40.0,10.0,30.0,40,30,60,2.0,0,0,1,0,1,0,Female,33.0,MBA,43,7,Finance,1.0,0.0,0.0,Less than once a month,Less than once a month,Stocks,No,US,60,1000.0
263,ttx727wz,tcbozsj9,2,Trade_ends,2021-11-17 17:38:05.378885+00:00,"{""currentPrice"": 46, ""priceIndex"": 29, ""secs_since_round_starts"": 60}",False,0.02,False,46.0,10.0,30.0,46,29,60,2.0,0,1,0,0,1,0,Male,36.0,master,6,6,Other,0.0,1.0,1.0,Less than once a month,Monthly,Cryptocurrencies,No,GB,1000,1000.0
273,75fuigmd,tcbozsj9,2,Trade_ends,2021-11-17 17:38:32.902422+00:00,"{""currentPrice"": 0, ""priceIndex"": 3, ""secs_since_round_starts"": 6}",False,0.02,False,0.0,10.0,30.0,0,3,6,2.0,1,0,0,0,1,0,Female,23.0,master,8,8,Other,0.0,1.0,1.0,Weekly,Daily,Stocks,No,GB,6,0.0
274,y1x26c8c,xm39f2ij,2,Trade_ends,2021-11-17 17:38:33.996589+00:00,"{""currentPrice"": 0, ""priceIndex"": 25, ""secs_since_round_starts"": 50}",False,0.02,False,0.0,10.0,30.0,0,25,50,2.0,1,0,0,0,1,0,Female,24.0,high-school graduate,43,7,Other,0.0,1.0,1.0,Monthly,Weekly,Stocks,Do not know,GB,50,0.0
277,z1oj5dsd,xm39f2ij,2,Trade_ends,2021-11-17 17:38:39.650762+00:00,"{""currentPrice"": 21, ""priceIndex"": 12, ""secs_since_round_starts"": 28}",True,0.02,False,21.0,10.0,30.0,21,12,28,2.0,0,1,0,0,1,1,Male,62.0,undergraduate: 4th year,35,8,Economics,0.0,1.0,0.0,Weekly,Multiple times a day,Stocks,Yes,GB,1000,1000.0
287,u42h5vwr,xm39f2ij,2,Trade_ends,2021-11-17 17:39:00.518236+00:00,"{""currentPrice"": 16, ""priceIndex"": 5, ""secs_since_round_starts"": 12}",False,0.02,False,16.0,10.0,30.0,16,5,12,2.0,0,1,0,0,1,0,Male,36.0,undergraduate: 4th year,9,9,Other,1.0,1.0,1.0,Weekly,Daily,Stocks,No,GB,1000,1000.0
291,qujsnwkv,xm39f2ij,2,Trade_ends,2021-11-17 17:39:08.089649+00:00,"{""currentPrice"": 43, ""priceIndex"": 30, ""secs_since_round_starts"": 60}",False,0.02,False,43.0,10.0,30.0,43,30,60,2.0,0,0,1,0,1,0,Female,42.0,high-school graduate,7,7,Other,0.0,0.0,0.0,Less than once a month,Less than once a month,Stocks,Do not know,GB,60,1000.0
304,wegg1qp3,xm39f2ij,2,Trade_ends,2021-11-17 17:39:35.396719+00:00,"{""currentPrice"": 34, ""priceIndex"": 30, ""secs_since_round_starts"": 60}",True,0.02,False,34.0,10.0,30.0,34,30,60,2.0,0,0,1,0,1,1,Female,45.0,undergraduate: 4th year,37,2,Other,1.0,1.0,1.0,Monthly,Monthly,Stocks,No,GB,60,1000.0
306,ipnt2h1h,xm39f2ij,2,Trade_ends,2021-11-17 17:39:42.734914+00:00,"{""currentPrice"": 28, ""priceIndex"": 18, ""secs_since_round_starts"": 39}",False,0.02,False,28.0,10.0,30.0,28,18,39,2.0,0,1,0,0,1,0,Female,42.0,undergraduate: 3d year,8,8,Other,0.0,0.0,0.0,Less than once a month,Less than once a month,"Derivatives (Options, Futures)",Do not know,GB,1000,1000.0
309,1ji0cvtf,xm39f2ij,2,Trade_ends,2021-11-17 17:39:45.872474+00:00,"{""currentPrice"": 22, ""priceIndex"": 13, ""secs_since_round_starts"": 27}",True,0.02,False,22.0,10.0,30.0,22,13,27,2.0,0,1,0,0,1,1,Male,25.0,undergraduate: 4th year,29,9,Other,0.0,1.0,1.0,Monthly,Weekly,Stocks,No,CA,1000,1000.0
312,04kq5q2m,xm39f2ij,2,Trade_ends,2021-11-17 17:39:55.945238+00:00,"{""currentPrice"": 0, ""priceIndex"": 3, ""secs_since_round_starts"": 6}",False,0.02,False,0.0,10.0,30.0,0,3,6,2.0,1,0,0,0,1,0,Female,39.0,high-school graduate,8,8,Other,0.0,0.0,0.0,Less than once a month,Less than once a month,Stocks,No,GB,6,0.0
314,vyq8om63,xm39f2ij,2,Trade_ends,2021-11-17 17:39:56.660154+00:00,"{""currentPrice"": 0, ""priceIndex"": 1, ""secs_since_round_starts"": 2}",False,0.02,False,0.0,10.0,30.0,0,1,2,2.0,1,0,0,0,1,0,Male,64.0,high-school graduate,5,5,Other,0.0,0.0,0.0,Less than once a month,Less than once a month,Stocks,No,GB,2,0.0
326,1y3613px,xm39f2ij,2,Trade_ends,2021-11-17 17:40:14.596335+00:00,"{""currentPrice"": 0, ""priceIndex"": 8, ""secs_since_round_starts"": 16}",True,0.02,False,0.0,10.0,30.0,0,8,16,2.0,1,0,0,0,1,1,Female,50.0,undergraduate: 2nd year,17,7,Other,0.0,0.0,0.0,Less than once a month,Less than once a month,Stocks,No,GB,16,0.0
331,6ge7bhob,tcbozsj9,2,Trade_ends,2021-11-17 17:40:19.127760+00:00,"{""currentPrice"": 16, ""priceIndex"": 5, ""secs_since_round_starts"": 13}",False,0.02,False,16.0,10.0,30.0,16,5,13,2.0,0,1,0,0,1,0,Female,51.0,undergraduate: 4th year,17,6,Other,0.0,1.0,0.0,Monthly,Weekly,Stocks,No,GB,1000,1000.0
334,xd7mkktn,xm39f2ij,2,Trade_ends,2021-11-17 17:40:24.676627+00:00,"{""currentPrice"": 30, ""priceIndex"": 14, ""secs_since_round_starts"": 31}",True,0.02,False,30.0,10.0,30.0,30,14,31,2.0,0,1,0,0,1,1,Female,28.0,undergraduate: 3d year,2,2,Other,0.0,1.0,1.0,Less than once a month,Monthly,Stocks,Do not know,US,1000,1000.0
341,f0v7af22,xm39f2ij,2,Trade_ends,2021-11-17 17:40:33.110729+00:00,"{""currentPrice"": 31, ""priceIndex"": 18, ""secs_since_round_starts"": 38}",False,0.02,False,31.0,10.0,30.0,31,18,38,2.0,0,1,0,0,1,0,Female,55.0,high-school graduate,9,9,Economics,0.0,1.0,1.0,Monthly,Weekly,Stocks,No,GB,1000,1000.0
354,gxjpfdwm,xm39f2ij,2,Trade_ends,2021-11-17 17:40:59.846305+00:00,"{""currentPrice"": 0, ""priceIndex"": 5, ""secs_since_round_starts"": 10}",True,0.02,False,0.0,10.0,30.0,0,5,10,2.0,1,0,0,0,1,1,Male,27.0,undergraduate: 4th year,22,6,Other,0.0,1.0,0.0,Less than once a month,Weekly,Cryptocurrencies,Do not know,GB,10,0.0
356,6vwp3h93,xm39f2ij,2,Trade_ends,2021-11-17 17:41:00.327792+00:00,"{""currentPrice"": 16, ""priceIndex"": 3, ""secs_since_round_starts"": 13}",False,0.02,False,16.0,10.0,30.0,16,3,13,2.0,0,1,0,0,1,0,Female,35.0,undergraduate: 4th year,10,10,Other Management,0.0,1.0,0.0,Less than once a month,Weekly,Cryptocurrencies,No,PL,1000,1000.0
370,iuw3vikk,xm39f2ij,2,Trade_ends,2021-11-17 17:41:20.927493+00:00,"{""currentPrice"": 39, ""priceIndex"": 30, ""secs_since_round_starts"": 60}",True,0.02,False,39.0,10.0,30.0,39,30,60,2.0,0,0,1,0,1,1,Male,42.0,undergraduate: 4th year,9,9,Other,1.0,1.0,1.0,Less than once a month,Daily,Stocks,No,CA,60,1000.0
372,0gkl9z0v,xm39f2ij,2,Trade_ends,2021-11-17 17:41:21.757700+00:00,"{""currentPrice"": 23, ""priceIndex"": 8, ""secs_since_round_starts"": 19}",False,0.02,False,23.0,10.0,30.0,23,8,19,2.0,0,1,0,0,1,0,Male,57.0,undergraduate: 2nd year,27,10,Other,0.0,1.0,0.0,Less than once a month,Less than once a month,Stocks,No,GB,1000,1000.0
373,k9xvz30n,xm39f2ij,2,Trade_ends,2021-11-17 17:41:21.814664+00:00,"{""currentPrice"": 15, ""priceIndex"": 5, ""secs_since_round_starts"": 12}",False,0.02,False,15.0,10.0,30.0,15,5,12,2.0,0,1,0,0,1,0,Male,42.0,high-school graduate,8,8,Other,0.0,0.0,0.0,Less than once a month,Less than once a month,Stocks,No,GB,1000,1000.0
380,dud3p3vx,xm39f2ij,2,Trade_ends,2021-11-17 17:41:29.821026+00:00,"{""currentPrice"": 33, ""priceIndex"": 30, ""secs_since_round_starts"": 60}",True,0.02,False,33.0,10.0,30.0,33,30,60,2.0,0,0,1,0,1,1,Male,28.0,high-school graduate,42,7,Other,0.0,1.0,1.0,Less than once a month,Less than once a month,Stocks,No,GB,60,1000.0
381,9x0n1u1m,xm39f2ij,2,Trade_ends,2021-11-17 17:41:30.396349+00:00,"{""currentPrice"": 31, ""priceIndex"": 23, ""secs_since_round_starts"": 48}",False,0.02,False,31.0,10.0,30.0,31,23,48,2.0,0,1,0,0,1,0,,,,21,0,,,,,,,,,CA,1000,1000.0
390,wk5703fr,xm39f2ij,2,Trade_ends,2021-11-17 17:41:40.220861+00:00,"{""currentPrice"": 0, ""priceIndex"": 2, ""secs_since_round_starts"": 5}",True,0.02,False,0.0,10.0,30.0,0,2,5,2.0,1,0,0,0,1,1,Male,28.0,undergraduate: 4th year,25,11,Other,0.0,1.0,1.0,Less than once a month,Less than once a month,Cryptocurrencies,No,LT,5,0.0
404,32j4jish,xm39f2ij,2,Trade_ends,2021-11-17 17:41:57.038079+00:00,"{""currentPrice"": 0, ""priceIndex"": 6, ""secs_since_round_starts"": 12}",True,0.02,False,0.0,10.0,30.0,0,6,12,2.0,1,0,0,0,1,1,Female,39.0,high-school graduate,24,10,Other,1.0,1.0,1.0,Monthly,Less than once a month,Stocks,No,CA,12,0.0
407,8a6x4g50,xm39f2ij,2,Trade_ends,2021-11-17 17:41:58.148013+00:00,"{""currentPrice"": 38, ""priceIndex"": 30, ""secs_since_round_starts"": 60}",True,0.02,False,38.0,10.0,30.0,38,30,60,2.0,0,0,1,0,1,1,Male,33.0,undergraduate: 3d year,46,8,Finance,0.0,0.0,0.0,Monthly,Weekly,Stocks,No,GB,60,1000.0
450,rzk4ymxl,xm39f2ij,2,Trade_ends,2021-11-17 17:42:47.548808+00:00,"{""currentPrice"": 14, ""priceIndex"": 4, ""secs_since_round_starts"": 22}",False,0.02,False,14.0,10.0,30.0,14,4,22,2.0,0,1,0,1,1,0,Female,49.0,master,4,4,Other,0.0,1.0,1.0,Monthly,Weekly,Stocks,No,GB,1000,1000.0
452,algrah9y,tcbozsj9,2,Trade_ends,2021-11-17 17:42:54.184298+00:00,"{""currentPrice"": 14, ""priceIndex"": 2, ""secs_since_round_starts"": 6}",False,0.02,False,14.0,10.0,30.0,14,2,6,2.0,0,1,0,0,1,0,Female,24.0,master,8,8,Other,0.0,1.0,1.0,Monthly,Weekly,Cryptocurrencies,No,NG,1000,1000.0
455,z7q85yre,xm39f2ij,2,Trade_ends,2021-11-17 17:42:55.847829+00:00,"{""currentPrice"": 23, ""priceIndex"": 14, ""secs_since_round_starts"": 34}",True,0.02,False,23.0,10.0,30.0,23,14,34,2.0,0,1,0,0,1,1,Male,56.0,undergraduate: 1st year,7,7,Other Management,0.0,1.0,1.0,Less than once a month,Weekly,Stocks,Yes,GB,1000,1000.0
469,binokv7z,xm39f2ij,2,Trade_ends,2021-11-17 17:43:14.868604+00:00,"{""currentPrice"": 0, ""priceIndex"": 20, ""secs_since_round_starts"": 40}",False,0.02,False,0.0,10.0,30.0,0,20,40,2.0,1,0,0,0,1,0,Male,42.0,undergraduate: 4th year,54,9,Other,0.0,1.0,1.0,Monthly,Weekly,Stocks,No,GB,40,0.0
488,p13xg0sd,xm39f2ij,2,Trade_ends,2021-11-17 17:43:47.147163+00:00,"{""currentPrice"": 0, ""priceIndex"": 2, ""secs_since_round_starts"": 4}",True,0.02,False,0.0,10.0,30.0,0,2,4,2.0,1,0,0,0,1,1,Male,27.0,undergraduate: 4th year,7,7,Other,1.0,1.0,1.0,Less than once a month,Weekly,Stocks,No,CA,4,0.0
490,hfunql5q,xm39f2ij,2,Trade_ends,2021-11-17 17:43:52.442068+00:00,"{""currentPrice"": 0, ""priceIndex"": 25, ""secs_since_round_starts"": 50}",False,0.02,False,0.0,10.0,30.0,0,25,50,2.0,1,0,0,0,1,0,Male,50.0,undergraduate: 4th year,28,3,Other,0.0,1.0,1.0,Less than once a month,Daily,Cryptocurrencies,No,US,50,0.0
492,l1vzn5r1,xm39f2ij,2,Trade_ends,2021-11-17 17:43:59.575858+00:00,"{""currentPrice"": 12, ""priceIndex"": 5, ""secs_since_round_starts"": 13}",False,0.02,False,12.0,10.0,30.0,12,5,13,2.0,0,1,0,0,1,0,Male,59.0,high-school graduate,5,5,Finance,0.0,1.0,0.0,Less than once a month,Daily,Stocks,No,GB,1000,1000.0
494,jsehusqo,xm39f2ij,2,Trade_ends,2021-11-17 17:44:06.534133+00:00,"{""currentPrice"": 20, ""priceIndex"": 9, ""secs_since_round_starts"": 22}",False,0.02,False,20.0,10.0,30.0,20,9,22,2.0,0,1,0,0,1,0,Female,23.0,undergraduate: 4th year,4,4,Other,0.0,0.0,0.0,Less than once a month,Less than once a month,Stocks,Do not know,CA,1000,1000.0
504,ca87mlrs,tcbozsj9,2,Trade_ends,2021-11-17 17:44:19.114199+00:00,"{""currentPrice"": 0, ""priceIndex"": 8, ""secs_since_round_starts"": 16}",False,0.02,False,0.0,10.0,30.0,0,8,16,2.0,1,0,0,0,1,0,Female,28.0,master,27,9,Other,0.0,1.0,1.0,Weekly,Daily,Stocks,No,GB,16,0.0
507,bdmul1xp,tcbozsj9,2,Trade_ends,2021-11-17 17:44:21.689237+00:00,"{""currentPrice"": 10, ""priceIndex"": 2, ""secs_since_round_starts"": 8}",True,0.02,False,10.0,10.0,30.0,10,2,8,2.0,0,1,0,0,1,1,Female,61.0,PhD,19,8,Other,0.0,1.0,0.0,Less than once a month,Less than once a month,Stocks,No,GB,1000,1000.0
509,mmdg6h2h,tcbozsj9,2,Trade_ends,2021-11-17 17:44:22.581443+00:00,"{""currentPrice"": 42, ""priceIndex"": 30, ""secs_since_round_starts"": 60}",True,0.02,False,42.0,10.0,30.0,42,30,60,2.0,0,0,1,0,1,1,Male,38.0,master,37,9,Other,0.0,1.0,1.0,Multiple times a day,Multiple times a day,Stocks,No,CA,60,1000.0
516,2rrqhmhl,xm39f2ij,2,Trade_ends,2021-11-17 17:44:38.616774+00:00,"{""currentPrice"": 11, ""priceIndex"": 1, ""secs_since_round_starts"": 5}",False,0.02,False,11.0,10.0,30.0,11,1,5,2.0,0,1,0,0,1,0,Female,29.0,undergraduate: 4th year,19,7,Other,0.0,1.0,1.0,Less than once a month,Monthly,Stocks,No,US,1000,1000.0
520,msqw07u7,xm39f2ij,2,Trade_ends,2021-11-17 17:44:42.185034+00:00,"{""currentPrice"": 19, ""priceIndex"": 12, ""secs_since_round_starts"": 27}",True,0.02,False,19.0,10.0,30.0,19,12,27,2.0,0,1,0,0,1,1,Male,69.0,undergraduate: 4th year,28,9,Other,0.0,1.0,0.0,Less than once a month,Monthly,Cryptocurrencies,No,GB,1000,1000.0
522,z5tclohr,tcbozsj9,2,Trade_ends,2021-11-17 17:44:44.925263+00:00,"{""currentPrice"": 16, ""priceIndex"": 8, ""secs_since_round_starts"": 20}",True,0.02,False,16.0,10.0,30.0,16,8,20,2.0,0,1,0,0,1,1,Female,64.0,master,21,7,Other,0.0,0.0,0.0,Less than once a month,Weekly,Bonds,No,IT,1000,1000.0
530,4ios3oos,tcbozsj9,2,Trade_ends,2021-11-17 17:44:50.767218+00:00,"{""currentPrice"": 0, ""priceIndex"": 13, ""secs_since_round_starts"": 26}",True,0.02,False,0.0,10.0,30.0,0,13,26,2.0,1,0,0,0,1,1,Female,47.0,undergraduate: 4th year,17,3,Other,0.0,0.0,0.0,Less than once a month,Less than once a month,Stocks,No,GB,26,0.0
554,73fcrbp3,tcbozsj9,2,Trade_ends,2021-11-17 17:45:16.066573+00:00,"{""currentPrice"": 35, ""priceIndex"": 30, ""secs_since_round_starts"": 60}",False,0.02,False,35.0,10.0,30.0,35,30,60,2.0,0,0,1,0,1,0,Female,30.0,master,37,6,Other,0.0,0.0,0.0,Less than once a month,Less than once a month,Stocks,Do not know,US,60,1000.0
563,2ma76q8f,xm39f2ij,2,Trade_ends,2021-11-17 17:45:23.318589+00:00,"{""currentPrice"": 24, ""priceIndex"": 14, ""secs_since_round_starts"": 31}",True,0.02,False,24.0,10.0,30.0,24,14,31,2.0,0,1,0,0,1,1,Female,33.0,undergraduate: 3d year,6,6,Other,0.0,0.0,1.0,Monthly,Daily,Stocks,No,GB,1000,1000.0
580,t35g4p4m,xm39f2ij,2,Trade_ends,2021-11-17 17:45:42.436716+00:00,"{""currentPrice"": 0, ""priceIndex"": 8, ""secs_since_round_starts"": 16}",False,0.02,False,0.0,10.0,30.0,0,8,16,2.0,1,0,0,0,1,0,Female,40.0,undergraduate: 2nd year,5,5,Other Management,0.0,0.0,0.0,Less than once a month,Less than once a month,Stocks,No,CA,16,0.0
607,7zwc5ekp,tcbozsj9,2,Trade_ends,2021-11-17 17:46:15.102120+00:00,"{""currentPrice"": 16, ""priceIndex"": 7, ""secs_since_round_starts"": 18}",True,0.02,False,16.0,10.0,30.0,16,7,18,2.0,0,1,0,0,1,1,Male,37.0,master,23,7,Other,0.0,1.0,0.0,Weekly,Daily,Cryptocurrencies,No,GB,1000,1000.0
611,439onpb0,xm39f2ij,2,Trade_ends,2021-11-17 17:46:18.970543+00:00,"{""currentPrice"": 0, ""priceIndex"": 4, ""secs_since_round_starts"": 8}",True,0.02,False,0.0,10.0,30.0,0,4,8,2.0,1,0,0,0,1,1,Female,52.0,undergraduate: 4th year,8,8,Other Management,0.0,0.0,0.0,Less than once a month,Daily,Stocks,Do not know,CA,8,0.0
639,blab3o8h,xm39f2ij,2,Trade_ends,2021-11-17 17:47:10.275502+00:00,"{""currentPrice"": 0, ""priceIndex"": 21, ""secs_since_round_starts"": 42}",True,0.02,False,0.0,10.0,30.0,0,21,42,2.0,1,0,0,0,1,1,Male,41.0,undergraduate: 4th year,27,7,Other,0.0,1.0,1.0,Weekly,Weekly,Cryptocurrencies,No,GB,42,0.0
647,p0jus2om,xm39f2ij,2,Trade_ends,2021-11-17 17:47:22.132792+00:00,"{""currentPrice"": 19, ""priceIndex"": 8, ""secs_since_round_starts"": 19}",False,0.02,False,19.0,10.0,30.0,19,8,19,2.0,0,1,0,0,1,0,Male,52.0,undergraduate: 3d year,9,9,Other,0.0,0.0,0.0,Less than once a month,Less than once a month,Stocks,No,GB,1000,1000.0
652,mzdokl0c,tcbozsj9,2,Trade_ends,2021-11-17 17:47:33.625029+00:00,"{""currentPrice"": 46, ""priceIndex"": 26, ""secs_since_round_starts"": 55}",True,0.02,False,46.0,10.0,30.0,46,26,55,2.0,0,1,0,0,1,1,Male,34.0,undergraduate: 4th year,22,9,Finance,1.0,1.0,1.0,Weekly,Daily,Stocks,Yes,CA,1000,1000.0
661,9auirpx0,tcbozsj9,2,Trade_ends,2021-11-17 17:47:50.965180+00:00,"{""currentPrice"": 0, ""priceIndex"": 11, ""secs_since_round_starts"": 22}",True,0.02,False,0.0,10.0,30.0,0,11,22,2.0,1,0,0,0,1,1,Female,32.0,master,10,10,Finance,0.0,1.0,1.0,Daily,Daily,Stocks,Yes,CA,22,0.0
662,x3nzb43c,tcbozsj9,2,Trade_ends,2021-11-17 17:47:51.005388+00:00,"{""currentPrice"": 27, ""priceIndex"": 14, ""secs_since_round_starts"": 30}",True,0.02,False,27.0,10.0,30.0,27,14,30,2.0,0,1,0,0,1,1,Male,43.0,PhD,29,8,Other,0.0,1.0,0.0,Monthly,Weekly,Stocks,No,GB,1000,1000.0
667,ebqqnl4z,tcbozsj9,2,Trade_ends,2021-11-17 17:48:07.720768+00:00,"{""currentPrice"": 18, ""priceIndex"": 10, ""secs_since_round_starts"": 22}",False,0.02,False,18.0,10.0,30.0,18,10,22,2.0,0,1,0,0,1,0,Male,35.0,master,18,3,Other,0.0,0.0,0.0,Less than once a month,Less than once a month,Stocks,No,GB,1000,1000.0
670,q2246qfd,xm39f2ij,2,Trade_ends,2021-11-17 17:48:09.162043+00:00,"{""currentPrice"": 0, ""priceIndex"": 2, ""secs_since_round_starts"": 4}",True,0.02,False,0.0,10.0,30.0,0,2,4,2.0,1,0,0,0,1,1,Male,18.0,undergraduate: 1st year,11,11,Other,1.0,1.0,1.0,Weekly,Daily,Stocks,Yes,GB,4,0.0
671,c4y7ihmw,tcbozsj9,2,Trade_ends,2021-11-17 17:48:09.355788+00:00,"{""currentPrice"": 10, ""priceIndex"": 1, ""secs_since_round_starts"": 5}",False,0.02,False,10.0,10.0,30.0,10,1,5,2.0,0,1,0,0,1,0,Male,28.0,master,20,10,Economics,1.0,1.0,1.0,Monthly,Weekly,Stocks,No,GB,1000,1000.0
675,8k7tc6yx,xm39f2ij,2,Trade_ends,2021-11-17 17:48:14.639628+00:00,"{""currentPrice"": 25, ""priceIndex"": 15, ""secs_since_round_starts"": 33}",False,0.02,False,25.0,10.0,30.0,25,15,33,2.0,0,1,0,0,1,0,Male,63.0,high-school graduate,30,9,Finance,0.0,0.0,0.0,Less than once a month,Weekly,Bonds,No,GB,1000,1000.0
678,qiln6s76,xm39f2ij,2,Trade_ends,2021-11-17 17:48:23.544044+00:00,"{""currentPrice"": 27, ""priceIndex"": 14, ""secs_since_round_starts"": 29}",True,0.02,False,27.0,10.0,30.0,27,14,29,2.0,0,1,0,0,1,1,Male,36.0,undergraduate: 1st year,28,6,Other,0.0,1.0,1.0,Monthly,Daily,Cryptocurrencies,No,US,1000,1000.0
684,z8rwr59l,tcbozsj9,2,Trade_ends,2021-11-17 17:48:32.345400+00:00,"{""currentPrice"": 18, ""priceIndex"": 10, ""secs_since_round_starts"": 23}",False,0.02,False,18.0,10.0,30.0,18,10,23,2.0,0,1,0,0,1,0,Male,65.0,PhD,24,8,Other,0.0,1.0,1.0,Less than once a month,Monthly,Stocks,No,GB,1000,1000.0
685,coa1xw1e,xm39f2ij,2,Trade_ends,2021-11-17 17:48:38.619553+00:00,"{""currentPrice"": 0, ""priceIndex"": 1, ""secs_since_round_starts"": 2}",True,0.02,False,0.0,10.0,30.0,0,1,2,2.0,1,0,0,0,1,1,Female,37.0,high-school graduate,24,6,Other,0.0,1.0,1.0,Monthly,Monthly,Stocks,Do not know,GB,2,0.0
695,u86vk4o9,xm39f2ij,2,Trade_ends,2021-11-17 17:48:51.244728+00:00,"{""currentPrice"": 34, ""priceIndex"": 24, ""secs_since_round_starts"": 53}",True,0.02,False,34.0,10.0,30.0,34,24,53,2.0,0,1,0,1,1,1,Male,48.0,undergraduate: 3d year,6,6,Other,0.0,0.0,0.0,Less than once a month,Less than once a month,Stocks,No,GB,1000,1000.0
696,t9anx9ew,xm39f2ij,2,Trade_ends,2021-11-17 17:48:52.922156+00:00,"{""currentPrice"": 22, ""priceIndex"": 14, ""secs_since_round_starts"": 30}",False,0.02,False,22.0,10.0,30.0,22,14,30,2.0,0,1,0,0,1,0,Male,31.0,high-school graduate,41,8,Other,0.0,1.0,1.0,Weekly,Daily,Cryptocurrencies,No,GB,1000,1000.0
698,xrb3k6ym,xm39f2ij,2,Trade_ends,2021-11-17 17:48:54.534461+00:00,"{""currentPrice"": 35, ""priceIndex"": 30, ""secs_since_round_starts"": 60}",True,0.02,False,35.0,10.0,30.0,35,30,60,2.0,0,0,1,0,1,1,Male,64.0,undergraduate: 4th year,9,9,Other,0.0,0.0,1.0,Weekly,Weekly,Stocks,No,GB,60,1000.0
714,elisw1rf,xm39f2ij,2,Trade_ends,2021-11-17 17:49:22.477169+00:00,"{""currentPrice"": 19, ""priceIndex"": 8, ""secs_since_round_starts"": 20}",False,0.02,False,19.0,10.0,30.0,19,8,20,2.0,0,1,0,0,1,0,Male,68.0,undergraduate: 4th year,14,8,Other,0.0,1.0,0.0,Less than once a month,Daily,Stocks,No,US,1000,1000.0
717,scn8jfw6,xm39f2ij,2,Trade_ends,2021-11-17 17:49:25.673446+00:00,"{""currentPrice"": 39, ""priceIndex"": 30, ""secs_since_round_starts"": 60}",True,0.02,False,39.0,10.0,30.0,39,30,60,2.0,0,0,1,0,1,1,Female,21.0,undergraduate: 2nd year,41,2,Other,0.0,1.0,0.0,Less than once a month,Less than once a month,Stocks,No,GB,60,1000.0
723,hlj5f880,xm39f2ij,2,Trade_ends,2021-11-17 17:49:34.838637+00:00,"{""currentPrice"": 0, ""priceIndex"": 7, ""secs_since_round_starts"": 14}",True,0.02,False,0.0,10.0,30.0,0,7,14,2.0,1,0,0,0,1,1,Female,51.0,high-school graduate,21,5,Other,0.0,0.0,0.0,Less than once a month,Less than once a month,Stocks,No,GB,14,0.0
726,nkjesyk4,xm39f2ij,2,Trade_ends,2021-11-17 17:49:35.893573+00:00,"{""currentPrice"": 37, ""priceIndex"": 25, ""secs_since_round_starts"": 53}",False,0.02,False,37.0,10.0,30.0,37,25,53,2.0,0,1,0,0,1,0,Male,36.0,high-school graduate,41,7,Other,0.0,1.0,1.0,Monthly,Daily,Stocks,No,GB,1000,1000.0
733,x8ow4w96,xm39f2ij,2,Trade_ends,2021-11-17 17:49:43.919070+00:00,"{""currentPrice"": 41, ""priceIndex"": 30, ""secs_since_round_starts"": 60}",True,0.02,False,41.0,10.0,30.0,41,30,60,2.0,0,0,1,0,1,1,Male,53.0,undergraduate: 2nd year,8,8,Other,0.0,1.0,0.0,Monthly,Monthly,Stocks,No,GB,60,1000.0
734,vgs34wdv,tcbozsj9,2,Trade_ends,2021-11-17 17:49:46.268705+00:00,"{""currentPrice"": 44, ""priceIndex"": 30, ""secs_since_round_starts"": 60}",True,0.02,False,44.0,10.0,30.0,44,30,60,2.0,0,0,1,0,1,1,Male,25.0,master,10,10,Economics,1.0,1.0,1.0,Less than once a month,Multiple times a day,Stocks,No,GB,60,1000.0
756,8fvikanf,xm39f2ij,2,Trade_ends,2021-11-17 17:50:14.034740+00:00,"{""currentPrice"": 17, ""priceIndex"": 4, ""secs_since_round_starts"": 11}",False,0.02,False,17.0,10.0,30.0,17,4,11,2.0,0,1,0,0,1,0,Female,52.0,undergraduate: 2nd year,18,5,Other Management,0.0,0.0,0.0,Less than once a month,Weekly,Stocks,No,GB,1000,1000.0
762,ravr9upi,xm39f2ij,2,Trade_ends,2021-11-17 17:50:18.896987+00:00,"{""currentPrice"": 0, ""priceIndex"": 1, ""secs_since_round_starts"": 2}",False,0.02,False,0.0,10.0,30.0,0,1,2,2.0,1,0,0,0,1,0,Female,38.0,undergraduate: 3d year,22,6,Other,0.0,1.0,0.0,Less than once a month,Monthly,Stocks,No,GB,2,0.0
765,2acdsr69,tcbozsj9,2,Trade_ends,2021-11-17 17:50:21.042883+00:00,"{""currentPrice"": 22, ""priceIndex"": 16, ""secs_since_round_starts"": 36}",True,0.02,False,22.0,10.0,30.0,22,16,36,2.0,0,1,0,0,1,1,Male,59.0,PhD,39,9,Other,0.0,1.0,0.0,Less than once a month,Daily,Stocks,No,GB,1000,1000.0
772,0wn6c99m,xm39f2ij,2,Trade_ends,2021-11-17 17:50:31.507220+00:00,"{""currentPrice"": 40, ""priceIndex"": 26, ""secs_since_round_starts"": 55}",True,0.02,False,40.0,10.0,30.0,40,26,55,2.0,0,1,0,0,1,1,Male,53.0,high-school graduate,4,4,Other,0.0,0.0,1.0,Less than once a month,Monthly,Stocks,Do not know,GB,1000,1000.0
795,5f58kl5b,xm39f2ij,2,Trade_ends,2021-11-17 17:51:01.634671+00:00,"{""currentPrice"": 0, ""priceIndex"": 8, ""secs_since_round_starts"": 16}",True,0.02,False,0.0,10.0,30.0,0,8,16,2.0,1,0,0,0,1,1,Male,52.0,high-school graduate,5,5,Other,0.0,1.0,0.0,Monthly,Weekly,Bonds,No,GB,16,0.0
810,mylktc3m,tcbozsj9,2,Trade_ends,2021-11-17 17:51:16.810777+00:00,"{""currentPrice"": 35, ""priceIndex"": 30, ""secs_since_round_starts"": 60}",False,0.02,False,35.0,10.0,30.0,35,30,60,2.0,0,0,1,0,1,0,Male,48.0,master,10,10,Other,1.0,1.0,0.0,Monthly,Daily,Stocks,No,GB,60,1000.0
823,v786n99i,xm39f2ij,2,Trade_ends,2021-11-17 17:51:37.952187+00:00,"{""currentPrice"": 0, ""priceIndex"": 4, ""secs_since_round_starts"": 8}",True,0.02,False,0.0,10.0,30.0,0,4,8,2.0,1,0,0,0,1,1,Female,23.0,high-school graduate,24,4,Other,0.0,0.0,1.0,Monthly,Daily,Cryptocurrencies,No,GB,8,0.0
829,1llc9bym,xm39f2ij,2,Trade_ends,2021-11-17 17:51:47.223672+00:00,"{""currentPrice"": 18, ""priceIndex"": 11, ""secs_since_round_starts"": 24}",False,0.02,False,18.0,10.0,30.0,18,11,24,2.0,0,1,0,0,1,0,Male,41.0,high-school graduate,33,7,Other,0.0,1.0,1.0,Daily,Multiple times a day,Stocks,No,GB,1000,1000.0
837,il7nzhyx,xm39f2ij,2,Trade_ends,2021-11-17 17:52:06.526698+00:00,"{""currentPrice"": 0, ""priceIndex"": 4, ""secs_since_round_starts"": 8}",True,0.02,False,0.0,10.0,30.0,0,4,8,2.0,1,0,0,0,1,1,Male,36.0,undergraduate: 2nd year,7,7,Other Management,0.0,0.0,0.0,Less than once a month,Less than once a month,Cryptocurrencies,No,GB,8,0.0
842,d93lvl0q,xm39f2ij,2,Trade_ends,2021-11-17 17:52:09.232954+00:00,"{""currentPrice"": 26, ""priceIndex"": 13, ""secs_since_round_starts"": 29}",False,0.02,False,26.0,10.0,30.0,26,13,29,2.0,0,1,0,0,1,0,,,,27,8,,,,,,,,,CA,1000,1000.0
854,csrza0iz,xm39f2ij,2,Trade_ends,2021-11-17 17:52:35.229604+00:00,"{""currentPrice"": 0, ""priceIndex"": 22, ""secs_since_round_starts"": 46}",True,0.02,False,0.0,10.0,30.0,0,22,46,2.0,1,0,0,1,1,1,Female,22.0,undergraduate: 4th year,29,11,Other,1.0,1.0,1.0,Less than once a month,Daily,Stocks,No,US,46,0.0
857,ce5ncj18,tcbozsj9,2,Trade_ends,2021-11-17 17:52:39.195179+00:00,"{""currentPrice"": 0, ""priceIndex"": 27, ""secs_since_round_starts"": 54}",True,0.02,False,0.0,10.0,30.0,0,27,54,2.0,1,0,0,0,1,1,Male,37.0,master,39,9,Other,0.0,1.0,1.0,Less than once a month,Weekly,Stocks,No,GB,54,0.0
862,8tss4rci,xm39f2ij,2,Trade_ends,2021-11-17 17:52:47.604842+00:00,"{""currentPrice"": 44, ""priceIndex"": 30, ""secs_since_round_starts"": 60}",True,0.02,False,44.0,10.0,30.0,44,30,60,2.0,0,0,1,0,1,1,Female,55.0,high-school graduate,50,6,Other,0.0,0.0,0.0,Less than once a month,Less than once a month,Stocks,Do not know,GB,60,1000.0
871,j9yn226i,tcbozsj9,2,Trade_ends,2021-11-17 17:52:57.312201+00:00,"{""currentPrice"": 16, ""priceIndex"": 6, ""secs_since_round_starts"": 16}",False,0.02,False,16.0,10.0,30.0,16,6,16,2.0,0,1,0,0,1,0,Male,38.0,undergraduate: 4th year,17,5,Other,0.0,1.0,1.0,Less than once a month,Monthly,Cryptocurrencies,No,GB,1000,1000.0
875,97zjs4x0,tcbozsj9,2,Trade_ends,2021-11-17 17:53:00.932982+00:00,"{""currentPrice"": 0, ""priceIndex"": 3, ""secs_since_round_starts"": 6}",True,0.02,False,0.0,10.0,30.0,0,3,6,2.0,1,0,0,0,1,1,Female,53.0,master,47,7,Other,1.0,1.0,0.0,Less than once a month,Less than once a month,Bonds,No,GB,6,0.0
884,aftq5yfo,xm39f2ij,2,Trade_ends,2021-11-17 17:53:16.526986+00:00,"{""currentPrice"": 20, ""priceIndex"": 9, ""secs_since_round_starts"": 21}",False,0.02,False,20.0,10.0,30.0,20,9,21,2.0,0,1,0,0,1,0,Male,25.0,undergraduate: 3d year,32,7,Economics,1.0,1.0,1.0,Weekly,Multiple times a day,Stocks,Yes,US,1000,1000.0
885,figf3mqu,xm39f2ij,2,Trade_ends,2021-11-17 17:53:19.430339+00:00,"{""currentPrice"": 0, ""priceIndex"": 8, ""secs_since_round_starts"": 16}",True,0.02,False,0.0,10.0,30.0,0,8,16,2.0,1,0,0,0,1,1,Female,50.0,undergraduate: 4th year,7,7,Other,0.0,1.0,0.0,Less than once a month,Less than once a month,Stocks,Do not know,GB,16,0.0
889,clzjav9c,xm39f2ij,2,Trade_ends,2021-11-17 17:53:26.498004+00:00,"{""currentPrice"": 13, ""priceIndex"": 2, ""secs_since_round_starts"": 9}",False,0.02,False,13.0,10.0,30.0,13,2,9,2.0,0,1,0,0,1,0,Male,53.0,high-school graduate,22,9,Other,0.0,1.0,0.0,Weekly,Monthly,Stocks,No,GB,1000,1000.0
892,sz2uyfc9,xm39f2ij,2,Trade_ends,2021-11-17 17:53:27.428662+00:00,"{""currentPrice"": 31, ""priceIndex"": 23, ""secs_since_round_starts"": 48}",True,0.02,False,31.0,10.0,30.0,31,23,48,2.0,0,1,0,0,1,1,Male,29.0,undergraduate: 4th year,23,7,Other,0.0,1.0,1.0,Daily,Multiple times a day,Cryptocurrencies,No,GB,1000,1000.0
894,qu09fzth,tcbozsj9,2,Trade_ends,2021-11-17 17:53:28.934202+00:00,"{""currentPrice"": 0, ""priceIndex"": 16, ""secs_since_round_starts"": 32}",True,0.02,False,0.0,10.0,30.0,0,16,32,2.0,1,0,0,0,1,1,Male,53.0,MBA,16,5,Other Management,1.0,0.0,0.0,Less than once a month,Less than once a month,Stocks,No,GB,32,0.0
919,xxk59a4c,xm39f2ij,2,Trade_ends,2021-11-17 17:54:02.740689+00:00,"{""currentPrice"": 0, ""priceIndex"": 12, ""secs_since_round_starts"": 28}",True,0.02,False,0.0,10.0,30.0,0,12,28,2.0,1,0,0,1,1,1,Female,60.0,high-school graduate,18,6,Other,0.0,0.0,0.0,Less than once a month,Less than once a month,Stocks,No,GB,28,0.0
925,nbatmcll,xm39f2ij,2,Trade_ends,2021-11-17 17:54:09.508276+00:00,"{""currentPrice"": 12, ""priceIndex"": 2, ""secs_since_round_starts"": 6}",False,0.02,False,12.0,10.0,30.0,12,2,6,2.0,0,1,0,0,1,0,Female,19.0,undergraduate: 2nd year,33,4,Other Management,0.0,1.0,1.0,Daily,Weekly,Stocks,Do not know,GB,1000,1000.0
929,st9psvu2,xm39f2ij,2,Trade_ends,2021-11-17 17:54:13.177175+00:00,"{""currentPrice"": 47, ""priceIndex"": 30, ""secs_since_round_starts"": 60}",True,0.02,False,47.0,10.0,30.0,47,30,60,2.0,0,0,1,0,1,1,Female,30.0,undergraduate: 4th year,48,7,Other,0.0,0.0,0.0,Less than once a month,Monthly,Stocks,No,GB,60,1000.0
939,r3dz4ifq,xm39f2ij,2,Trade_ends,2021-11-17 17:54:25.467929+00:00,"{""currentPrice"": 19, ""priceIndex"": 6, ""secs_since_round_starts"": 13}",False,0.02,False,19.0,10.0,30.0,19,6,13,2.0,0,1,0,0,1,0,Female,51.0,undergraduate: 4th year,46,8,Other,0.0,0.0,0.0,Less than once a month,Less than once a month,Stocks,No,GB,1000,1000.0
943,c626z10h,xm39f2ij,2,Trade_ends,2021-11-17 17:54:28.937074+00:00,"{""currentPrice"": 0, ""priceIndex"": 3, ""secs_since_round_starts"": 6}",True,0.02,False,0.0,10.0,30.0,0,3,6,2.0,1,0,0,0,1,1,Male,20.0,undergraduate: 3d year,18,5,Other,0.0,0.0,0.0,Less than once a month,Less than once a month,Cryptocurrencies,No,CA,6,0.0
945,u6wo1qao,xm39f2ij,2,Trade_ends,2021-11-17 17:54:30.406958+00:00,"{""currentPrice"": 19, ""priceIndex"": 6, ""secs_since_round_starts"": 15}",False,0.02,False,19.0,10.0,30.0,19,6,15,2.0,0,1,0,0,1,0,Female,48.0,master,7,7,Other,0.0,0.0,0.0,Less than once a month,Less than once a month,Stocks,No,GB,1000,1000.0
963,u604bpn2,tcbozsj9,2,Trade_ends,2021-11-17 17:54:52.212584+00:00,"{""currentPrice"": 44, ""priceIndex"": 30, ""secs_since_round_starts"": 60}",False,0.02,False,44.0,10.0,30.0,44,30,60,2.0,0,0,1,0,1,0,Female,36.0,master,41,6,Other,0.0,0.0,0.0,Less than once a month,Less than once a month,Stocks,No,GB,60,1000.0
966,gghdxyj5,xm39f2ij,2,Trade_ends,2021-11-17 17:54:53.221938+00:00,"{""currentPrice"": 0, ""priceIndex"": 19, ""secs_since_round_starts"": 38}",False,0.02,False,0.0,10.0,30.0,0,19,38,2.0,1,0,0,0,1,0,Female,26.0,undergraduate: 4th year,2,2,Other,0.0,1.0,1.0,Less than once a month,Monthly,Stocks,No,GB,38,0.0
967,1ghe9ixx,xm39f2ij,2,Trade_ends,2021-11-17 17:54:54.474540+00:00,"{""currentPrice"": 43, ""priceIndex"": 30, ""secs_since_round_starts"": 60}",False,0.02,False,43.0,10.0,30.0,43,30,60,2.0,0,0,1,0,1,0,Female,25.0,undergraduate: 4th year,4,4,Other,1.0,1.0,1.0,Monthly,Daily,Stocks,Yes,US,60,1000.0
971,oi1hh1vy,xm39f2ij,2,Trade_ends,2021-11-17 17:55:02.455421+00:00,"{""currentPrice"": 0, ""priceIndex"": 2, ""secs_since_round_starts"": 4}",False,0.02,False,0.0,10.0,30.0,0,2,4,2.0,1,0,0,0,1,0,Male,19.0,high-school graduate,9,9,Other Management,0.0,1.0,1.0,Monthly,Daily,Cryptocurrencies,No,GB,4,0.0
972,ul0vfb8s,tcbozsj9,2,Trade_ends,2021-11-17 17:55:02.903424+00:00,"{""currentPrice"": 0, ""priceIndex"": 17, ""secs_since_round_starts"": 34}",False,0.02,False,0.0,10.0,30.0,0,17,34,2.0,1,0,0,0,1,0,Female,36.0,master,10,10,Finance,1.0,0.0,0.0,Less than once a month,Less than once a month,Stocks,No,GB,34,0.0
989,si403iua,xm39f2ij,2,Trade_ends,2021-11-17 17:55:17.768025+00:00,"{""currentPrice"": 15, ""priceIndex"": 4, ""secs_since_round_starts"": 10}",False,0.02,False,15.0,10.0,30.0,15,4,10,2.0,0,1,0,0,1,0,Female,23.0,undergraduate: 4th year,22,9,Other,0.0,1.0,1.0,Less than once a month,Less than once a month,Stocks,No,US,1000,1000.0
1001,k01ljdln,xm39f2ij,2,Trade_ends,2021-11-17 17:55:33.778707+00:00,"{""currentPrice"": 0, ""priceIndex"": 11, ""secs_since_round_starts"": 22}",False,0.02,False,0.0,10.0,30.0,0,11,22,2.0,1,0,0,0,1,0,Female,39.0,high-school graduate,16,5,Other,0.0,0.0,0.0,Less than once a month,Less than once a month,Stocks,Do not know,GB,22,0.0
1006,srprrp1d,xm39f2ij,2,Trade_ends,2021-11-17 17:55:41.008017+00:00,"{""currentPrice"": 0, ""priceIndex"": 13, ""secs_since_round_starts"": 26}",False,0.02,False,0.0,10.0,30.0,0,13,26,2.0,1,0,0,0,1,0,Male,31.0,high-school graduate,8,8,Other,0.0,1.0,1.0,Less than once a month,Less than once a month,Cryptocurrencies,No,GB,26,0.0
1008,vza59fcp,xm39f2ij,2,Trade_ends,2021-11-17 17:55:42.071261+00:00,"{""currentPrice"": 12, ""priceIndex"": 4, ""secs_since_round_starts"": 14}",True,0.02,False,12.0,10.0,30.0,12,4,14,2.0,0,1,0,0,1,1,Male,52.0,undergraduate: 2nd year,20,8,Other,0.0,0.0,0.0,Less than once a month,Less than once a month,Stocks,No,US,1000,1000.0
1011,tno72d90,tcbozsj9,2,Trade_ends,2021-11-17 17:55:46.035498+00:00,"{""currentPrice"": 27, ""priceIndex"": 20, ""secs_since_round_starts"": 48}",False,0.02,False,27.0,10.0,30.0,27,20,48,2.0,0,1,0,0,1,0,Male,32.0,master,24,9,Other,0.0,0.0,1.0,Less than once a month,Monthly,Stocks,No,GB,1000,1000.0
1013,aynxkozm,xm39f2ij,2,Trade_ends,2021-11-17 17:55:46.566451+00:00,"{""currentPrice"": 15, ""priceIndex"": 4, ""secs_since_round_starts"": 15}",True,0.02,False,15.0,10.0,30.0,15,4,15,2.0,0,1,0,0,1,1,Female,58.0,undergraduate: 1st year,8,8,Other,0.0,0.0,0.0,Less than once a month,Less than once a month,Cryptocurrencies,No,US,1000,1000.0
1050,lpc5xizl,xm39f2ij,2,Trade_ends,2021-11-17 17:56:20.188285+00:00,"{""currentPrice"": 22, ""priceIndex"": 9, ""secs_since_round_starts"": 21}",True,0.02,False,22.0,10.0,30.0,22,9,21,2.0,0,1,0,0,1,1,Female,30.0,undergraduate: 3d year,30,8,Other,0.0,1.0,1.0,Less than once a month,Weekly,Stocks,No,GB,1000,1000.0
1051,r502x290,xm39f2ij,2,Trade_ends,2021-11-17 17:56:20.859410+00:00,"{""currentPrice"": 0, ""priceIndex"": 3, ""secs_since_round_starts"": 6}",True,0.02,False,0.0,10.0,30.0,0,3,6,2.0,1,0,0,0,1,1,Male,66.0,did not graduate high school,23,7,Other,0.0,1.0,1.0,Less than once a month,Weekly,Cryptocurrencies,Do not know,GB,6,0.0
1052,yv5hoqoj,xm39f2ij,2,Trade_ends,2021-11-17 17:56:21.241388+00:00,"{""currentPrice"": 0, ""priceIndex"": 3, ""secs_since_round_starts"": 6}",True,0.02,False,0.0,10.0,30.0,0,3,6,2.0,1,0,0,0,1,1,Male,52.0,undergraduate: 3d year,27,11,Other,0.0,1.0,0.0,Monthly,Weekly,Stocks,No,GB,6,0.0
1065,oj9hi92z,xm39f2ij,2,Trade_ends,2021-11-17 17:56:42.646367+00:00,"{""currentPrice"": 38, ""priceIndex"": 30, ""secs_since_round_starts"": 60}",True,0.02,False,38.0,10.0,30.0,38,30,60,2.0,0,0,1,0,1,1,Male,45.0,undergraduate: 4th year,44,8,Other,1.0,1.0,1.0,Weekly,Daily,Stocks,Yes,US,60,1000.0
1083,xuhkx4t4,xm39f2ij,2,Trade_ends,2021-11-17 17:57:05.455888+00:00,"{""currentPrice"": 18, ""priceIndex"": 13, ""secs_since_round_starts"": 28}",False,0.02,False,18.0,10.0,30.0,18,13,28,2.0,0,1,0,0,1,0,Female,26.0,high-school graduate,32,7,Other,1.0,1.0,1.0,Daily,Daily,Stocks,No,US,1000,1000.0
1088,2b6ic1cj,tcbozsj9,2,Trade_ends,2021-11-17 17:57:09.964637+00:00,"{""currentPrice"": 18, ""priceIndex"": 7, ""secs_since_round_starts"": 20}",True,0.02,False,18.0,10.0,30.0,18,7,20,2.0,0,1,0,1,1,1,Male,41.0,undergraduate: 4th year,34,8,Other,0.0,1.0,1.0,Daily,Multiple times a day,Stocks,No,GB,1000,1000.0
1101,185f8eil,tcbozsj9,2,Trade_ends,2021-11-17 17:57:22.551957+00:00,"{""currentPrice"": 43, ""priceIndex"": 30, ""secs_since_round_starts"": 60}",True,0.02,False,43.0,10.0,30.0,43,30,60,2.0,0,0,1,0,1,1,Male,31.0,PhD,31,9,Other,0.0,1.0,1.0,Less than once a month,Weekly,Stocks,No,US,60,1000.0
1103,khu8rc5s,xm39f2ij,2,Trade_ends,2021-11-17 17:57:28.760891+00:00,"{""currentPrice"": 14, ""priceIndex"": 4, ""secs_since_round_starts"": 16}",True,0.02,False,14.0,10.0,30.0,14,4,16,2.0,0,1,0,0,1,1,Female,38.0,high-school graduate,22,4,Other,0.0,0.0,0.0,Less than once a month,Less than once a month,Cryptocurrencies,No,GB,1000,1000.0
1117,lsbaumuw,tcbozsj9,2,Trade_ends,2021-11-17 17:57:45.220487+00:00,"{""currentPrice"": 36, ""priceIndex"": 28, ""secs_since_round_starts"": 58}",False,0.02,False,36.0,10.0,30.0,36,28,58,2.0,0,1,0,0,1,0,Male,46.0,master,42,6,Economics,1.0,1.0,1.0,Weekly,Weekly,Stocks,No,US,1000,1000.0
1119,ug151vpy,xm39f2ij,2,Trade_ends,2021-11-17 17:57:45.932253+00:00,"{""currentPrice"": 15, ""priceIndex"": 5, ""secs_since_round_starts"": 18}",False,0.02,False,15.0,10.0,30.0,15,5,18,2.0,0,1,0,2,1,0,Female,37.0,high-school graduate,21,5,Other Management,0.0,0.0,0.0,Less than once a month,Less than once a month,Bonds,Do not know,CA,1000,1000.0
1126,sj5ryl6y,xm39f2ij,2,Trade_ends,2021-11-17 17:57:54.669946+00:00,"{""currentPrice"": 37, ""priceIndex"": 30, ""secs_since_round_starts"": 60}",True,0.02,False,37.0,10.0,30.0,37,30,60,2.0,0,0,1,0,1,1,Female,30.0,undergraduate: 3d year,44,7,Other,0.0,0.0,0.0,Less than once a month,Daily,Bonds,No,GB,60,1000.0
1130,xsxyqxta,xm39f2ij,2,Trade_ends,2021-11-17 17:57:57.209106+00:00,"{""currentPrice"": 0, ""priceIndex"": 6, ""secs_since_round_starts"": 12}",False,0.02,False,0.0,10.0,30.0,0,6,12,2.0,1,0,0,0,1,0,Male,57.0,undergraduate: 3d year,28,11,Economics,1.0,1.0,0.0,Less than once a month,Monthly,Stocks,No,GB,12,0.0
1134,nwfz3sac,tcbozsj9,2,Trade_ends,2021-11-17 17:57:58.779597+00:00,"{""currentPrice"": 0, ""priceIndex"": 19, ""secs_since_round_starts"": 38}",False,0.02,False,0.0,10.0,30.0,0,19,38,2.0,1,0,0,0,1,0,Male,36.0,undergraduate: 3d year,7,7,Other Management,0.0,1.0,1.0,Less than once a month,Monthly,Stocks,No,GB,38,0.0
1137,rr26mytm,xm39f2ij,2,Trade_ends,2021-11-17 17:58:01.056935+00:00,"{""currentPrice"": 16, ""priceIndex"": 3, ""secs_since_round_starts"": 8}",False,0.02,False,16.0,10.0,30.0,16,3,8,2.0,0,1,0,0,1,0,Male,30.0,undergraduate: 4th year,22,6,Other,0.0,1.0,1.0,Less than once a month,Less than once a month,Stocks,No,GB,1000,1000.0
1143,ac53fcse,xm39f2ij,2,Trade_ends,2021-11-17 17:58:09.632956+00:00,"{""currentPrice"": 15, ""priceIndex"": 8, ""secs_since_round_starts"": 28}",True,0.02,False,15.0,10.0,30.0,15,8,28,2.0,0,1,0,0,1,1,Female,54.0,high-school graduate,4,4,Other,0.0,0.0,0.0,Less than once a month,Less than once a month,Stocks,No,US,1000,1000.0
1157,vscplj47,xm39f2ij,2,Trade_ends,2021-11-17 17:58:23.730589+00:00,"{""currentPrice"": 0, ""priceIndex"": 12, ""secs_since_round_starts"": 24}",False,0.02,False,0.0,10.0,30.0,0,12,24,2.0,1,0,0,0,1,0,Female,31.0,undergraduate: 4th year,22,5,Other,0.0,1.0,0.0,Less than once a month,Less than once a month,Stocks,No,GB,24,0.0
1161,2mxqtx37,xm39f2ij,2,Trade_ends,2021-11-17 17:58:28.618320+00:00,"{""currentPrice"": 18, ""priceIndex"": 6, ""secs_since_round_starts"": 14}",False,0.02,False,18.0,10.0,30.0,18,6,14,2.0,0,1,0,0,1,0,Female,29.0,undergraduate: 4th year,29,8,Finance,1.0,1.0,1.0,Monthly,Daily,Cryptocurrencies,No,CA,1000,1000.0
1165,6rq7l4li,tcbozsj9,2,Trade_ends,2021-11-17 17:58:36.148753+00:00,"{""currentPrice"": 24, ""priceIndex"": 15, ""secs_since_round_starts"": 36}",True,0.02,False,24.0,10.0,30.0,24,15,36,2.0,0,1,0,0,1,1,Male,36.0,master,34,10,Other,0.0,1.0,1.0,Weekly,Daily,Stocks,No,GB,1000,1000.0
1170,9zi336a3,xm39f2ij,2,Trade_ends,2021-11-17 17:58:39.430591+00:00,"{""currentPrice"": 13, ""priceIndex"": 3, ""secs_since_round_starts"": 9}",True,0.02,False,13.0,10.0,30.0,13,3,9,2.0,0,1,0,0,1,1,Female,31.0,undergraduate: 4th year,16,3,Other,0.0,1.0,0.0,Less than once a month,Less than once a month,Stocks,Do not know,US,1000,1000.0
1178,nh4rieot,xm39f2ij,2,Trade_ends,2021-11-17 17:58:49.625537+00:00,"{""currentPrice"": 0, ""priceIndex"": 2, ""secs_since_round_starts"": 4}",True,0.02,False,0.0,10.0,30.0,0,2,4,2.0,1,0,0,0,1,1,Male,35.0,undergraduate: 3d year,35,8,Other,0.0,1.0,1.0,Monthly,Weekly,Stocks,No,GB,4,0.0
1184,mlrkm78s,xm39f2ij,2,Trade_ends,2021-11-17 17:58:53.818766+00:00,"{""currentPrice"": 11, ""priceIndex"": 1, ""secs_since_round_starts"": 9}",False,0.02,False,11.0,10.0,30.0,11,1,9,2.0,0,1,0,0,1,0,Male,74.0,undergraduate: 4th year,22,7,Other Management,0.0,0.0,0.0,Less than once a month,Monthly,Stocks,No,GB,1000,1000.0
1192,x87y70u0,tcbozsj9,2,Trade_ends,2021-11-17 17:58:59.215374+00:00,"{""currentPrice"": 44, ""priceIndex"": 30, ""secs_since_round_starts"": 60}",True,0.02,False,44.0,10.0,30.0,44,30,60,2.0,0,0,1,0,1,1,Male,34.0,master,7,7,Other Management,0.0,0.0,0.0,Less than once a month,Less than once a month,Bonds,No,GB,60,1000.0
1202,ki11ycm7,tcbozsj9,2,Trade_ends,2021-11-17 17:59:09.816235+00:00,"{""currentPrice"": 44, ""priceIndex"": 30, ""secs_since_round_starts"": 60}",False,0.02,False,44.0,10.0,30.0,44,30,60,2.0,0,0,1,0,1,0,Male,40.0,master,39,10,Other,0.0,1.0,1.0,Daily,Daily,Cryptocurrencies,Yes,GB,60,1000.0
1213,krkmvdlh,xm39f2ij,2,Trade_ends,2021-11-17 17:59:17.416740+00:00,"{""currentPrice"": 0, ""priceIndex"": 5, ""secs_since_round_starts"": 10}",True,0.02,False,0.0,10.0,30.0,0,5,10,2.0,1,0,0,0,1,1,Male,54.0,high-school graduate,4,4,Other,0.0,1.0,0.0,Less than once a month,Less than once a month,Stocks,No,GB,10,0.0
1218,6lw3ehjm,xm39f2ij,2,Trade_ends,2021-11-17 17:59:23.445407+00:00,"{""currentPrice"": 18, ""priceIndex"": 8, ""secs_since_round_starts"": 18}",False,0.02,False,18.0,10.0,30.0,18,8,18,2.0,0,1,0,0,1,0,Female,52.0,undergraduate: 4th year,29,6,Other,0.0,0.0,0.0,Less than once a month,Less than once a month,Stocks,No,GB,1000,1000.0
1224,6nojgj4m,xm39f2ij,2,Trade_ends,2021-11-17 17:59:32.997528+00:00,"{""currentPrice"": 0, ""priceIndex"": 4, ""secs_since_round_starts"": 8}",False,0.02,False,0.0,10.0,30.0,0,4,8,2.0,1,0,0,0,1,0,Male,18.0,undergraduate: 1st year,6,6,Other,0.0,0.0,0.0,Less than once a month,Less than once a month,Stocks,No,GB,8,0.0
1242,b767a1zq,xm39f2ij,2,Trade_ends,2021-11-17 17:59:52.440078+00:00,"{""currentPrice"": 32, ""priceIndex"": 24, ""secs_since_round_starts"": 54}",False,0.02,False,32.0,10.0,30.0,32,24,54,2.0,0,1,0,1,1,0,Male,22.0,undergraduate: 4th year,8,8,Other,0.0,0.0,1.0,Less than once a month,Less than once a month,Stocks,No,US,1000,1000.0
1248,tcxbklrf,tcbozsj9,2,Trade_ends,2021-11-17 17:59:55.931056+00:00,"{""currentPrice"": 0, ""priceIndex"": 3, ""secs_since_round_starts"": 6}",True,0.02,False,0.0,10.0,30.0,0,3,6,2.0,1,0,0,0,1,1,Female,59.0,PhD,21,7,Other,0.0,0.0,0.0,Less than once a month,Weekly,Stocks,No,CA,6,0.0
1255,di68wgsk,xm39f2ij,2,Trade_ends,2021-11-17 18:00:07.606096+00:00,"{""currentPrice"": 42, ""priceIndex"": 30, ""secs_since_round_starts"": 60}",True,0.02,False,42.0,10.0,30.0,42,30,60,2.0,0,0,1,0,1,1,Female,24.0,undergraduate: 3d year,17,3,Other,0.0,1.0,0.0,Less than once a month,Monthly,Stocks,No,GB,60,1000.0
1262,g72k919b,xm39f2ij,2,Trade_ends,2021-11-17 18:00:12.073261+00:00,"{""currentPrice"": 19, ""priceIndex"": 13, ""secs_since_round_starts"": 29}",True,0.02,False,19.0,10.0,30.0,19,13,29,2.0,0,1,0,0,1,1,Male,35.0,undergraduate: 4th year,19,1,Other,0.0,1.0,1.0,Less than once a month,Weekly,Stocks,No,GB,1000,1000.0
1267,es6jee4n,xm39f2ij,2,Trade_ends,2021-11-17 18:00:16.439855+00:00,"{""currentPrice"": 0, ""priceIndex"": 23, ""secs_since_round_starts"": 46}",True,0.02,False,0.0,10.0,30.0,0,23,46,2.0,1,0,0,0,1,1,Male,20.0,undergraduate: 1st year,5,5,Other Management,1.0,1.0,1.0,Monthly,Daily,Stocks,No,GB,46,0.0
1272,rtwfrini,xm39f2ij,2,Trade_ends,2021-11-17 18:00:24.812866+00:00,"{""currentPrice"": 0, ""priceIndex"": 3, ""secs_since_round_starts"": 6}",True,0.02,False,0.0,10.0,30.0,0,3,6,2.0,1,0,0,0,1,1,Male,38.0,undergraduate: 4th year,7,7,Other,0.0,0.0,1.0,Monthly,Multiple times a day,Stocks,No,GB,6,0.0
1284,ovgiwckx,xm39f2ij,2,Trade_ends,2021-11-17 18:00:36.307184+00:00,"{""currentPrice"": 10, ""priceIndex"": 1, ""secs_since_round_starts"": 8}",False,0.02,False,10.0,10.0,30.0,10,1,8,2.0,0,1,0,0,1,0,Female,56.0,undergraduate: 3d year,19,9,Other Management,0.0,0.0,0.0,Less than once a month,Monthly,Stocks,No,GB,1000,1000.0
1294,2t0hexav,tcbozsj9,2,Trade_ends,2021-11-17 18:00:46.248326+00:00,"{""currentPrice"": 0, ""priceIndex"": 1, ""secs_since_round_starts"": 2}",False,0.02,False,0.0,10.0,30.0,0,1,2,2.0,1,0,0,0,1,0,Male,33.0,master,11,11,Other Management,1.0,1.0,1.0,Monthly,Daily,Cryptocurrencies,No,GB,2,0.0
1296,7yqwcdg2,tcbozsj9,2,Trade_ends,2021-11-17 18:00:47.800339+00:00,"{""currentPrice"": 29, ""priceIndex"": 17, ""secs_since_round_starts"": 37}",False,0.02,False,29.0,10.0,30.0,29,17,37,2.0,0,1,0,0,1,0,Male,31.0,master,7,7,Other,1.0,1.0,1.0,Less than once a month,Weekly,Cryptocurrencies,Do not know,NG,1000,1000.0
1298,eak58cac,tcbozsj9,2,Trade_ends,2021-11-17 18:00:48.827152+00:00,"{""currentPrice"": 0, ""priceIndex"": 4, ""secs_since_round_starts"": 8}",True,0.02,False,0.0,10.0,30.0,0,4,8,2.0,1,0,0,0,1,1,Male,49.0,MBA,10,10,Economics,0.0,0.0,0.0,Less than once a month,Monthly,Stocks,No,GB,8,0.0
1314,3vfmdm1e,xm39f2ij,2,Trade_ends,2021-11-17 18:01:03.502834+00:00,"{""currentPrice"": 0, ""priceIndex"": 23, ""secs_since_round_starts"": 46}",False,0.02,False,0.0,10.0,30.0,0,23,46,2.0,1,0,0,0,1,0,Female,25.0,undergraduate: 4th year,40,7,Other Management,1.0,0.0,0.0,Less than once a month,Weekly,Stocks,No,US,46,0.0
1320,h6iss93b,xm39f2ij,2,Trade_ends,2021-11-17 18:01:08.247825+00:00,"{""currentPrice"": 32, ""priceIndex"": 30, ""secs_since_round_starts"": 60}",False,0.02,False,32.0,10.0,30.0,32,30,60,2.0,0,0,1,0,1,0,Male,43.0,undergraduate: 4th year,4,4,Other,0.0,0.0,0.0,Less than once a month,Less than once a month,Cryptocurrencies,Do not know,US,60,1000.0
1340,yii0hjko,xm39f2ij,2,Trade_ends,2021-11-17 18:01:38.794588+00:00,"{""currentPrice"": 0, ""priceIndex"": 8, ""secs_since_round_starts"": 16}",True,0.02,False,0.0,10.0,30.0,0,8,16,2.0,1,0,0,0,1,1,Male,29.0,undergraduate: 3d year,25,10,Other,0.0,1.0,1.0,Monthly,Daily,Cryptocurrencies,No,GB,16,0.0
1347,6f69ldkk,xm39f2ij,3,Trade_ends,2021-11-17 18:01:47.193691+00:00,"{""currentPrice"": 42, ""priceIndex"": 30, ""secs_since_round_starts"": 60}",True,0.05,False,42.0,10.0,30.0,42,30,60,2.0,0,0,1,0,1,1,Male,39.0,undergraduate: 4th year,50,9,Other,0.0,0.0,0.0,Less than once a month,Daily,Stocks,No,GB,60,1000.0
1365,7mj7bb2v,xm39f2ij,2,Trade_ends,2021-11-17 18:02:07.434014+00:00,"{""currentPrice"": 13, ""priceIndex"": 4, ""secs_since_round_starts"": 14}",False,0.02,False,13.0,10.0,30.0,13,4,14,2.0,0,1,0,0,1,0,Male,18.0,undergraduate: 1st year,25,8,Other Management,0.0,1.0,1.0,Weekly,Multiple times a day,Stocks,No,US,1000,1000.0
1369,namqfa7b,tcbozsj9,2,Trade_ends,2021-11-17 18:02:11.484861+00:00,"{""currentPrice"": 11, ""priceIndex"": 3, ""secs_since_round_starts"": 9}",True,0.02,False,11.0,10.0,30.0,11,3,9,2.0,0,1,0,0,1,1,Male,27.0,master,20,8,Other,1.0,1.0,1.0,Daily,Daily,Cryptocurrencies,Yes,US,1000,1000.0
1371,gr53gswl,xm39f2ij,2,Trade_ends,2021-11-17 18:02:13.969488+00:00,"{""currentPrice"": 22, ""priceIndex"": 17, ""secs_since_round_starts"": 37}",True,0.02,False,22.0,10.0,30.0,22,17,37,2.0,0,1,0,0,1,1,Male,61.0,high-school graduate,8,8,Other,0.0,1.0,1.0,Weekly,Multiple times a day,Stocks,No,GB,1000,1000.0
1374,xffdratb,xm39f2ij,2,Trade_ends,2021-11-17 18:02:14.910239+00:00,"{""currentPrice"": 0, ""priceIndex"": 3, ""secs_since_round_starts"": 6}",False,0.02,False,0.0,10.0,30.0,0,3,6,2.0,1,0,0,0,1,0,Female,66.0,high-school graduate,8,8,Other,0.0,1.0,1.0,Less than once a month,Less than once a month,Stocks,Do not know,GB,6,0.0
1377,urpv6xeg,xm39f2ij,2,Trade_ends,2021-11-17 18:02:17.299864+00:00,"{""currentPrice"": 24, ""priceIndex"": 18, ""secs_since_round_starts"": 39}",True,0.02,False,24.0,10.0,30.0,24,18,39,2.0,0,1,0,0,1,1,Female,32.0,high-school graduate,23,4,Other,0.0,0.0,0.0,Less than once a month,Daily,Stocks,Do not know,US,1000,1000.0
1400,7kkbml7g,xm39f2ij,2,Trade_ends,2021-11-17 18:02:40.592157+00:00,"{""currentPrice"": 26, ""priceIndex"": 15, ""secs_since_round_starts"": 33}",True,0.02,False,26.0,10.0,30.0,26,15,33,2.0,0,1,0,0,1,1,Male,57.0,undergraduate: 1st year,6,6,Other,0.0,1.0,1.0,Monthly,Multiple times a day,Cryptocurrencies,No,GB,1000,1000.0
1412,8tmx53xe,tcbozsj9,2,Trade_ends,2021-11-17 18:03:00.652164+00:00,"{""currentPrice"": 37, ""priceIndex"": 30, ""secs_since_round_starts"": 60}",True,0.02,False,37.0,10.0,30.0,37,30,60,2.0,0,0,1,0,1,1,Male,32.0,master,8,8,Finance,0.0,1.0,1.0,Weekly,Daily,Cryptocurrencies,No,GB,60,1000.0
1418,auw3bw5u,xm39f2ij,2,Trade_ends,2021-11-17 18:03:10.055395+00:00,"{""currentPrice"": 17, ""priceIndex"": 9, ""secs_since_round_starts"": 23}",True,0.02,False,17.0,10.0,30.0,17,9,23,2.0,0,1,0,0,1,1,Female,37.0,undergraduate: 3d year,26,5,Other,1.0,0.0,0.0,Less than once a month,Monthly,Cryptocurrencies,No,GB,1000,1000.0
1423,nfs2aouj,xm39f2ij,2,Trade_ends,2021-11-17 18:03:11.739826+00:00,"{""currentPrice"": 20, ""priceIndex"": 9, ""secs_since_round_starts"": 20}",False,0.02,False,20.0,10.0,30.0,20,9,20,2.0,0,1,0,0,1,0,Male,30.0,undergraduate: 4th year,35,10,Other Management,1.0,0.0,1.0,Less than once a month,Less than once a month,Cryptocurrencies,No,CA,1000,1000.0
1433,6sbj1vrx,tcbozsj9,2,Trade_ends,2021-11-17 18:03:19.553207+00:00,"{""currentPrice"": 40, ""priceIndex"": 23, ""secs_since_round_starts"": 50}",True,0.02,False,40.0,10.0,30.0,40,23,50,2.0,0,1,0,0,1,1,Female,32.0,master,39,9,Other,0.0,1.0,1.0,Less than once a month,Monthly,Stocks,Do not know,GB,1000,1000.0
1434,xxtvfy8b,xm39f2ij,2,Trade_ends,2021-11-17 18:03:20.758685+00:00,"{""currentPrice"": 23, ""priceIndex"": 9, ""secs_since_round_starts"": 23}",True,0.02,False,23.0,10.0,30.0,23,9,23,2.0,0,1,0,0,1,1,Male,24.0,master,23,8,Other,0.0,1.0,1.0,Monthly,Daily,Stocks,No,US,1000,1000.0
1435,zzu3co7n,xm39f2ij,2,Trade_ends,2021-11-17 18:03:21.092615+00:00,"{""currentPrice"": 0, ""priceIndex"": 16, ""secs_since_round_starts"": 32}",True,0.02,False,0.0,10.0,30.0,0,16,32,2.0,1,0,0,0,1,1,Female,60.0,undergraduate: 4th year,51,9,Other,0.0,1.0,0.0,Less than once a month,Less than once a month,Stocks,No,GB,32,0.0
1443,uu2qcr5z,tcbozsj9,2,Trade_ends,2021-11-17 18:03:28.115085+00:00,"{""currentPrice"": 0, ""priceIndex"": 1, ""secs_since_round_starts"": 2}",False,0.02,False,0.0,10.0,30.0,0,1,2,2.0,1,0,0,0,1,0,Male,37.0,high-school graduate,8,8,Other,0.0,0.0,0.0,Less than once a month,Less than once a month,Stocks,No,US,2,0.0
1448,a0754ire,xm39f2ij,2,Trade_ends,2021-11-17 18:03:34.417186+00:00,"{""currentPrice"": 24, ""priceIndex"": 12, ""secs_since_round_starts"": 27}",False,0.02,False,24.0,10.0,30.0,24,12,27,2.0,0,1,0,0,1,0,Male,35.0,undergraduate: 4th year,2,2,Other,0.0,1.0,1.0,Monthly,Weekly,Stocks,No,US,1000,1000.0
1481,3plkxb22,xm39f2ij,2,Trade_ends,2021-11-17 18:04:10.957891+00:00,"{""currentPrice"": 0, ""priceIndex"": 4, ""secs_since_round_starts"": 8}",False,0.02,False,0.0,10.0,30.0,0,4,8,2.0,1,0,0,0,1,0,Female,51.0,undergraduate: 4th year,28,8,Other,0.0,1.0,0.0,Monthly,Monthly,Stocks,No,GB,8,0.0
1482,q6kdcl87,xm39f2ij,2,Trade_ends,2021-11-17 18:04:12.169463+00:00,"{""currentPrice"": 0, ""priceIndex"": 7, ""secs_since_round_starts"": 14}",True,0.02,False,0.0,10.0,30.0,0,7,14,2.0,1,0,0,0,1,1,Male,33.0,high-school graduate,7,7,Other,0.0,1.0,1.0,Multiple times a day,Multiple times a day,Cryptocurrencies,No,US,14,0.0
1489,zxs97i5j,xm39f2ij,2,Trade_ends,2021-11-17 18:04:20.361388+00:00,"{""currentPrice"": 42, ""priceIndex"": 30, ""secs_since_round_starts"": 60}",False,0.02,False,42.0,10.0,30.0,42,30,60,2.0,0,0,1,0,1,0,Male,50.0,high-school graduate,8,8,Other,0.0,1.0,1.0,Monthly,Daily,Stocks,No,GB,60,1000.0
1492,fpgbeckm,tcbozsj9,2,Trade_ends,2021-11-17 18:04:23.562776+00:00,"{""currentPrice"": 18, ""priceIndex"": 11, ""secs_since_round_starts"": 25}",False,0.02,False,18.0,10.0,30.0,18,11,25,2.0,0,1,0,0,1,0,Female,39.0,undergraduate: 4th year,7,7,Other,0.0,1.0,1.0,Monthly,Less than once a month,Stocks,Do not know,US,1000,1000.0
1504,7vffo7ew,tcbozsj9,2,Trade_ends,2021-11-17 18:04:33.307721+00:00,"{""currentPrice"": 0, ""priceIndex"": 14, ""secs_since_round_starts"": 28}",True,0.02,False,0.0,10.0,30.0,0,14,28,2.0,1,0,0,0,1,1,Male,35.0,master,5,5,Other Management,0.0,0.0,0.0,Less than once a month,Daily,Cryptocurrencies,No,NG,28,0.0
1512,n5mgxcr9,xm39f2ij,2,Trade_ends,2021-11-17 18:04:45.970926+00:00,"{""currentPrice"": 20, ""priceIndex"": 9, ""secs_since_round_starts"": 20}",False,0.02,False,20.0,10.0,30.0,20,9,20,2.0,0,1,0,0,1,0,Male,29.0,undergraduate: 1st year,22,9,Economics,0.0,1.0,1.0,Monthly,Weekly,Stocks,No,GB,1000,1000.0
1515,ar3xhux0,xm39f2ij,2,Trade_ends,2021-11-17 18:04:49.015007+00:00,"{""currentPrice"": 0, ""priceIndex"": 3, ""secs_since_round_starts"": 6}",True,0.02,False,0.0,10.0,30.0,0,3,6,2.0,1,0,0,0,1,1,Male,53.0,high-school graduate,23,7,Other Management,0.0,0.0,0.0,Less than once a month,Daily,Stocks,Do not know,GB,6,0.0
1518,gaiikedg,xm39f2ij,2,Trade_ends,2021-11-17 18:04:52.440953+00:00,"{""currentPrice"": 0, ""priceIndex"": 7, ""secs_since_round_starts"": 14}",True,0.02,False,0.0,10.0,30.0,0,7,14,2.0,1,0,0,0,1,1,Female,32.0,undergraduate: 4th year,28,6,Other,0.0,0.0,0.0,Less than once a month,Less than once a month,Stocks,No,US,14,0.0
1526,zosp7byr,tcbozsj9,3,Trade_ends,2021-11-17 18:04:56.715139+00:00,"{""currentPrice"": 0, ""priceIndex"": 27, ""secs_since_round_starts"": 54}",False,0.05,False,0.0,10.0,30.0,0,27,54,2.0,1,0,0,0,1,0,Female,27.0,master,9,9,Other Management,1.0,1.0,1.0,Monthly,Weekly,Stocks,No,US,54,0.0
1556,p160aptp,xm39f2ij,2,Trade_ends,2021-11-17 18:05:40.770296+00:00,"{""currentPrice"": 43, ""priceIndex"": 30, ""secs_since_round_starts"": 60}",True,0.02,False,43.0,10.0,30.0,43,30,60,2.0,0,0,1,0,1,1,Female,37.0,undergraduate: 4th year,27,7,Other,0.0,0.0,0.0,Less than once a month,Less than once a month,Cryptocurrencies,No,GB,60,1000.0
1570,xy1ewit7,tcbozsj9,2,Trade_ends,2021-11-17 18:05:58.668937+00:00,"{""currentPrice"": 12, ""priceIndex"": 1, ""secs_since_round_starts"": 7}",False,0.02,False,12.0,10.0,30.0,12,1,7,2.0,0,1,0,0,1,0,Female,38.0,PhD,20,8,Other Management,0.0,1.0,0.0,Weekly,Weekly,Stocks,No,GB,1000,1000.0
1580,hdk43hzl,xm39f2ij,2,Trade_ends,2021-11-17 18:06:11.134385+00:00,"{""currentPrice"": 34, ""priceIndex"": 30, ""secs_since_round_starts"": 60}",True,0.02,False,34.0,10.0,30.0,34,30,60,2.0,0,0,1,0,1,1,Male,36.0,undergraduate: 4th year,43,9,Other,0.0,1.0,1.0,Monthly,Daily,Stocks,No,US,60,1000.0
1585,g1h9kgor,xm39f2ij,2,Trade_ends,2021-11-17 18:06:16.862731+00:00,"{""currentPrice"": 0, ""priceIndex"": 15, ""secs_since_round_starts"": 30}",False,0.02,False,0.0,10.0,30.0,0,15,30,2.0,1,0,0,0,1,0,Male,21.0,high-school graduate,5,5,Other,0.0,1.0,1.0,Monthly,Weekly,Cryptocurrencies,No,NL,30,0.0
1593,43o45q2b,tcbozsj9,2,Trade_ends,2021-11-17 18:06:24.920484+00:00,"{""currentPrice"": 11, ""priceIndex"": 1, ""secs_since_round_starts"": 4}",False,0.02,False,11.0,10.0,30.0,11,1,4,2.0,0,1,0,0,1,0,Male,39.0,PhD,8,8,Other,0.0,1.0,0.0,Less than once a month,Weekly,Stocks,No,GB,1000,1000.0
1598,oyth4hny,tcbozsj9,2,Trade_ends,2021-11-17 18:06:30.388246+00:00,"{""currentPrice"": 15, ""priceIndex"": 4, ""secs_since_round_starts"": 11}",True,0.02,False,15.0,10.0,30.0,15,4,11,2.0,0,1,0,0,1,1,Female,49.0,master,19,6,Other,0.0,0.0,0.0,Less than once a month,Less than once a month,Stocks,Do not know,CA,1000,1000.0
1599,9o7by75a,tcbozsj9,2,Trade_ends,2021-11-17 18:06:32.466352+00:00,"{""currentPrice"": 0, ""priceIndex"": 27, ""secs_since_round_starts"": 54}",False,0.02,False,0.0,10.0,30.0,0,27,54,2.0,1,0,0,0,1,0,Female,73.0,master,4,4,Other,0.0,1.0,0.0,Less than once a month,Monthly,Stocks,No,GB,54,0.0
1619,jcb0xhi7,xm39f2ij,2,Trade_ends,2021-11-17 18:06:52.397568+00:00,"{""currentPrice"": 0, ""priceIndex"": 1, ""secs_since_round_starts"": 2}",True,0.02,False,0.0,10.0,30.0,0,1,2,2.0,1,0,0,0,1,1,Male,26.0,master,7,7,Other,0.0,1.0,1.0,Less than once a month,Weekly,Cryptocurrencies,No,GB,2,0.0
1631,0iaw7po2,tcbozsj9,2,Trade_ends,2021-11-17 18:07:14.563608+00:00,"{""currentPrice"": 0, ""priceIndex"": 2, ""secs_since_round_starts"": 4}",False,0.02,False,0.0,10.0,30.0,0,2,4,2.0,1,0,0,0,1,0,Female,44.0,master,4,4,Other,0.0,0.0,0.0,Less than once a month,Monthly,Stocks,No,GB,4,0.0
1648,g6ylb3he,tcbozsj9,2,Trade_ends,2021-11-17 18:07:37.675182+00:00,"{""currentPrice"": 32, ""priceIndex"": 30, ""secs_since_round_starts"": 60}",False,0.02,False,32.0,10.0,30.0,32,30,60,2.0,0,0,1,0,1,0,Male,40.0,master,10,10,Other,0.0,0.0,1.0,Less than once a month,Less than once a month,Stocks,Do not know,GB,60,1000.0
1650,9suhy1js,xm39f2ij,2,Trade_ends,2021-11-17 18:07:37.976157+00:00,"{""currentPrice"": 0, ""priceIndex"": 20, ""secs_since_round_starts"": 40}",False,0.02,False,0.0,10.0,30.0,0,20,40,2.0,1,0,0,0,1,0,Male,56.0,undergraduate: 4th year,10,10,Other,0.0,1.0,0.0,Less than once a month,Less than once a month,Stocks,No,GB,40,0.0
1654,ebtt1n68,xm39f2ij,2,Trade_ends,2021-11-17 18:07:44.496436+00:00,"{""currentPrice"": 20, ""priceIndex"": 14, ""secs_since_round_starts"": 30}",False,0.02,False,20.0,10.0,30.0,20,14,30,2.0,0,1,0,0,1,0,Male,38.0,undergraduate: 4th year,28,8,Other,0.0,1.0,0.0,Weekly,Weekly,Stocks,Do not know,MY,1000,1000.0
1662,h1pj9ce3,xm39f2ij,2,Trade_ends,2021-11-17 18:08:01.112663+00:00,"{""currentPrice"": 17, ""priceIndex"": 5, ""secs_since_round_starts"": 12}",False,0.02,False,17.0,10.0,30.0,17,5,12,2.0,0,1,0,0,1,0,Male,61.0,high-school graduate,23,6,Other,0.0,0.0,0.0,Less than once a month,Less than once a month,Stocks,Do not know,GB,1000,1000.0
1667,0edmcl2x,tcbozsj9,2,Trade_ends,2021-11-17 18:08:10.341803+00:00,"{""currentPrice"": 0, ""priceIndex"": 10, ""secs_since_round_starts"": 20}",False,0.02,False,0.0,10.0,30.0,0,10,20,2.0,1,0,0,0,1,0,Male,48.0,MBA,6,6,Other Management,1.0,1.0,1.0,Less than once a month,Less than once a month,Cryptocurrencies,No,US,20,0.0
1671,8h8izd8u,tcbozsj9,2,Trade_ends,2021-11-17 18:08:17.115886+00:00,"{""currentPrice"": 0, ""priceIndex"": 23, ""secs_since_round_starts"": 46}",True,0.02,False,0.0,10.0,30.0,0,23,46,2.0,1,0,0,0,1,1,Female,56.0,master,37,6,Other,0.0,1.0,1.0,Less than once a month,Weekly,Stocks,No,US,46,0.0
1676,hzku7c0k,xm39f2ij,2,Trade_ends,2021-11-17 18:08:22.535454+00:00,"{""currentPrice"": 28, ""priceIndex"": 20, ""secs_since_round_starts"": 48}",False,0.02,False,28.0,10.0,30.0,28,20,48,2.0,0,1,0,1,1,0,Female,60.0,undergraduate: 4th year,23,8,Other Management,0.0,1.0,0.0,Less than once a month,Monthly,Stocks,No,IE,1000,1000.0
1740,6rmcz9at,xm39f2ij,2,Trade_ends,2021-11-17 18:10:26.887702+00:00,"{""currentPrice"": 0, ""priceIndex"": 12, ""secs_since_round_starts"": 24}",False,0.02,False,0.0,10.0,30.0,0,12,24,2.0,1,0,0,0,1,0,Male,21.0,high-school graduate,6,6,Other,0.0,0.0,0.0,Less than once a month,Less than once a month,Stocks,No,GB,24,0.0
1766,ldy7w56d,tcbozsj9,2,Trade_ends,2021-11-17 18:12:26.414846+00:00,"{""currentPrice"": 0, ""priceIndex"": 2, ""secs_since_round_starts"": 4}",True,0.02,False,0.0,10.0,30.0,0,2,4,2.0,1,0,0,0,1,1,Male,29.0,PhD,23,7,Other Management,0.0,0.0,1.0,Monthly,Weekly,Stocks,No,US,4,0.0
1774,qqdo82zk,xm39f2ij,2,Trade_ends,2021-11-17 18:13:29.658470+00:00,"{""currentPrice"": 0, ""priceIndex"": 25, ""secs_since_round_starts"": 50}",True,0.02,False,0.0,10.0,30.0,0,25,50,2.0,1,0,0,0,1,1,Male,63.0,high-school graduate,23,7,Other,0.0,0.0,0.0,Less than once a month,Weekly,Stocks,No,GB,50,0.0
1778,xaofo1ds,xm39f2ij,2,Trade_ends,2021-11-17 18:14:04.721354+00:00,"{""currentPrice"": 19, ""priceIndex"": 12, ""secs_since_round_starts"": 26}",False,0.02,False,19.0,10.0,30.0,19,12,26,2.0,0,1,0,0,1,0,Male,33.0,master,30,11,Economics,0.0,1.0,1.0,Monthly,Weekly,Stocks,No,US,1000,1000.0
1781,c0epu77e,tcbozsj9,2,Trade_ends,2021-11-17 18:14:20.559330+00:00,"{""currentPrice"": 38, ""priceIndex"": 30, ""secs_since_round_starts"": 60}",False,0.02,False,38.0,10.0,30.0,38,30,60,2.0,0,0,1,0,1,0,Female,41.0,master,48,10,Other,0.0,1.0,1.0,Weekly,Weekly,Stocks,No,US,60,1000.0
1785,dqrojlxd,tcbozsj9,2,Trade_ends,2021-11-17 18:14:42.181414+00:00,"{""currentPrice"": 0, ""priceIndex"": 7, ""secs_since_round_starts"": 14}",True,0.02,False,0.0,10.0,30.0,0,7,14,2.0,1,0,0,0,1,1,Other,30.0,master,21,11,Other,0.0,0.0,0.0,Less than once a month,Less than once a month,Stocks,Do not know,US,14,0.0
1790,b8jms6b1,tcbozsj9,2,Trade_ends,2021-11-17 18:15:12.566447+00:00,"{""currentPrice"": 10, ""priceIndex"": 0, ""secs_since_round_starts"": 4}",False,0.02,False,10.0,10.0,30.0,10,0,4,2.0,0,1,0,0,1,0,Female,31.0,master,18,7,Other,1.0,1.0,1.0,Less than once a month,Weekly,Stocks,Do not know,US,1000,1000.0
1804,zscnbxsq,tcbozsj9,2,Trade_ends,2021-11-17 18:15:54.807924+00:00,"{""currentPrice"": 14, ""priceIndex"": 6, ""secs_since_round_starts"": 17}",False,0.02,False,14.0,10.0,30.0,14,6,17,2.0,0,1,0,0,1,0,Female,38.0,undergraduate: 4th year,28,7,Other,0.0,0.0,0.0,Less than once a month,Less than once a month,Bonds,No,GB,1000,1000.0
1806,6nrc8il1,tcbozsj9,2,Trade_ends,2021-11-17 18:16:10.699709+00:00,"{""currentPrice"": 27, ""priceIndex"": 15, ""secs_since_round_starts"": 48}",True,0.02,False,27.0,10.0,30.0,27,15,48,2.0,0,1,0,0,1,1,Male,54.0,master,23,8,Other,0.0,1.0,0.0,Monthly,Weekly,Stocks,No,GB,1000,1000.0
1816,qzzjg17w,tcbozsj9,2,Trade_ends,2021-11-17 18:17:02.844283+00:00,"{""currentPrice"": 35, ""priceIndex"": 25, ""secs_since_round_starts"": 53}",True,0.02,False,35.0,10.0,30.0,35,25,53,2.0,0,1,0,0,1,1,Male,33.0,master,28,8,Other,0.0,1.0,1.0,Daily,Daily,Stocks,No,CA,1000,1000.0
1826,r2iwsdzl,tcbozsj9,2,Trade_ends,2021-11-17 18:18:06.291551+00:00,"{""currentPrice"": 45, ""priceIndex"": 30, ""secs_since_round_starts"": 60}",True,0.02,False,45.0,10.0,30.0,45,30,60,2.0,0,0,1,0,1,1,Male,38.0,master,52,7,Economics,1.0,1.0,0.0,Less than once a month,Weekly,Stocks,No,IT,60,1000.0
1830,zekr9to7,tcbozsj9,2,Trade_ends,2021-11-17 18:18:46.827829+00:00,"{""currentPrice"": 37, ""priceIndex"": 30, ""secs_since_round_starts"": 60}",True,0.02,False,37.0,10.0,30.0,37,30,60,2.0,0,0,1,0,1,1,Female,27.0,master,8,8,Other,0.0,1.0,1.0,Less than once a month,Less than once a month,Stocks,No,US,60,1000.0
1831,59h22eqk,tcbozsj9,2,Trade_ends,2021-11-17 18:19:02.548631+00:00,"{""currentPrice"": 0, ""priceIndex"": 2, ""secs_since_round_starts"": 4}",False,0.02,False,0.0,10.0,30.0,0,2,4,2.0,1,0,0,0,1,0,Female,71.0,master,18,7,Other,1.0,1.0,1.0,Less than once a month,Daily,Stocks,No,US,4,0.0
1836,hfqj1ecm,tcbozsj9,3,Trade_ends,2021-11-17 18:19:17.653662+00:00,"{""currentPrice"": 0, ""priceIndex"": 19, ""secs_since_round_starts"": 38}",True,0.05,False,0.0,10.0,30.0,0,19,38,2.0,1,0,0,0,1,1,Male,41.0,master,53,11,Other Management,0.0,1.0,1.0,Multiple times a day,Multiple times a day,Cryptocurrencies,Yes,GB,38,0.0
1844,vzktoqz1,tcbozsj9,2,Trade_ends,2021-11-17 18:19:39.232480+00:00,"{""currentPrice"": 0, ""priceIndex"": 22, ""secs_since_round_starts"": 44}",True,0.02,False,0.0,10.0,30.0,0,22,44,2.0,1,0,0,0,1,1,Female,27.0,PhD,35,2,Other Management,0.0,1.0,0.0,Less than once a month,Less than once a month,Stocks,Do not know,GB,44,0.0
1849,godb8u7j,xm39f2ij,2,Trade_ends,2021-11-17 18:19:56.711112+00:00,"{""currentPrice"": 42, ""priceIndex"": 30, ""secs_since_round_starts"": 60}",False,0.02,False,42.0,10.0,30.0,42,30,60,2.0,0,0,1,0,1,0,Female,29.0,undergraduate: 4th year,27,2,Other,0.0,0.0,0.0,Less than once a month,Less than once a month,Stocks,No,GB,60,1000.0
1856,1s1pekcl,tcbozsj9,2,Trade_ends,2021-11-17 18:20:13.354431+00:00,"{""currentPrice"": 17, ""priceIndex"": 5, ""secs_since_round_starts"": 13}",False,0.02,False,17.0,10.0,30.0,17,5,13,2.0,0,1,0,0,1,0,Female,52.0,MBA,24,9,Other Management,0.0,1.0,1.0,Weekly,Daily,Stocks,Yes,DE,1000,1000.0
1859,t79k2g77,tcbozsj9,2,Trade_ends,2021-11-17 18:20:20.748591+00:00,"{""currentPrice"": 0, ""priceIndex"": 16, ""secs_since_round_starts"": 32}",True,0.02,False,0.0,10.0,30.0,0,16,32,2.0,1,0,0,0,1,1,Male,29.0,master,44,8,Other,0.0,1.0,1.0,Monthly,Weekly,Stocks,No,BR,32,0.0
1861,850ul6nv,tcbozsj9,2,Trade_ends,2021-11-17 18:20:28.660028+00:00,"{""currentPrice"": 12, ""priceIndex"": 4, ""secs_since_round_starts"": 12}",True,0.02,False,12.0,10.0,30.0,12,4,12,2.0,0,1,0,0,1,1,Female,44.0,master,17,5,Other,0.0,1.0,0.0,Less than once a month,Less than once a month,Stocks,Do not know,US,1000,1000.0
1869,d8uc4nbl,tcbozsj9,2,Trade_ends,2021-11-17 18:20:51.428014+00:00,"{""currentPrice"": 30, ""priceIndex"": 15, ""secs_since_round_starts"": 55}",True,0.02,False,30.0,10.0,30.0,30,15,55,2.0,0,1,0,1,1,1,Male,50.0,undergraduate: 4th year,8,8,Other,0.0,1.0,0.0,Monthly,Weekly,Stocks,No,GB,1000,1000.0
1877,nje4rvlm,tcbozsj9,2,Trade_ends,2021-11-17 18:21:08.100181+00:00,"{""currentPrice"": 0, ""priceIndex"": 4, ""secs_since_round_starts"": 8}",True,0.02,False,0.0,10.0,30.0,0,4,8,2.0,1,0,0,0,1,1,Male,56.0,PhD,18,4,Other Management,0.0,1.0,1.0,Weekly,Multiple times a day,Stocks,No,GB,8,0.0
1888,z7hinxlj,tcbozsj9,2,Trade_ends,2021-11-17 18:21:41.707322+00:00,"{""currentPrice"": 22, ""priceIndex"": 12, ""secs_since_round_starts"": 27}",False,0.02,False,22.0,10.0,30.0,22,12,27,2.0,0,1,0,0,1,0,Female,46.0,master,7,7,Other,0.0,1.0,1.0,Less than once a month,Less than once a month,Stocks,No,GB,1000,1000.0
1908,l3rhe960,tcbozsj9,2,Trade_ends,2021-11-17 18:22:28.112590+00:00,"{""currentPrice"": 0, ""priceIndex"": 14, ""secs_since_round_starts"": 28}",True,0.02,False,0.0,10.0,30.0,0,14,28,2.0,1,0,0,0,1,1,Female,30.0,master,24,6,Other,0.0,1.0,0.0,Less than once a month,Monthly,Stocks,No,US,28,0.0
1913,0g35k4wl,tcbozsj9,2,Trade_ends,2021-11-17 18:22:36.635071+00:00,"{""currentPrice"": 0, ""priceIndex"": 7, ""secs_since_round_starts"": 14}",True,0.02,False,0.0,10.0,30.0,0,7,14,2.0,1,0,0,0,1,1,Male,21.0,master,3,3,Finance,1.0,1.0,0.0,Monthly,Monthly,Cryptocurrencies,No,GB,14,0.0
1941,5vud4hyg,tcbozsj9,2,Trade_ends,2021-11-17 18:24:11.089388+00:00,"{""currentPrice"": 13, ""priceIndex"": 3, ""secs_since_round_starts"": 9}",True,0.02,False,13.0,10.0,30.0,13,3,9,2.0,0,1,0,0,1,1,Female,32.0,master,20,9,Other,0.0,1.0,1.0,Less than once a month,Weekly,Stocks,No,US,1000,1000.0
1956,98ffahca,tcbozsj9,2,Trade_ends,2021-11-17 18:25:06.485237+00:00,"{""currentPrice"": 0, ""priceIndex"": 2, ""secs_since_round_starts"": 4}",False,0.02,False,0.0,10.0,30.0,0,2,4,2.0,1,0,0,0,1,0,Female,55.0,master,26,7,Other,0.0,1.0,0.0,Less than once a month,Less than once a month,Stocks,No,US,4,0.0
1965,to3fs46g,tcbozsj9,2,Trade_ends,2021-11-17 18:25:50.849000+00:00,"{""currentPrice"": 0, ""priceIndex"": 23, ""secs_since_round_starts"": 46}",False,0.02,False,0.0,10.0,30.0,0,23,46,2.0,1,0,0,0,1,0,Female,44.0,MBA,7,7,Other,1.0,1.0,0.0,Less than once a month,Multiple times a day,Stocks,No,US,46,0.0
1968,rbnukx7k,tcbozsj9,2,Trade_ends,2021-11-17 18:26:10.014166+00:00,"{""currentPrice"": 38, ""priceIndex"": 30, ""secs_since_round_starts"": 60}",True,0.02,False,38.0,10.0,30.0,38,30,60,2.0,0,0,1,0,1,1,Male,39.0,PhD,7,7,Other,0.0,0.0,1.0,Weekly,Multiple times a day,Stocks,No,US,60,1000.0
1978,3raofkjo,tcbozsj9,2,Trade_ends,2021-11-17 18:27:41.953425+00:00,"{""currentPrice"": 25, ""priceIndex"": 15, ""secs_since_round_starts"": 33}",True,0.02,False,25.0,10.0,30.0,25,15,33,2.0,0,1,0,0,1,1,Female,28.0,PhD,32,7,Other,0.0,0.0,0.0,Less than once a month,Daily,Stocks,No,US,1000,1000.0
1979,qbkzmhfn,tcbozsj9,2,Trade_ends,2021-11-17 18:27:46.477482+00:00,"{""currentPrice"": 26, ""priceIndex"": 12, ""secs_since_round_starts"": 29}",True,0.02,False,26.0,10.0,30.0,26,12,29,2.0,0,1,0,0,1,1,Male,39.0,master,30,8,Other,0.0,1.0,0.0,Less than once a month,Weekly,Stocks,No,GB,1000,1000.0
1980,pi33wwrr,tcbozsj9,2,Trade_ends,2021-11-17 18:27:46.949847+00:00,"{""currentPrice"": 21, ""priceIndex"": 11, ""secs_since_round_starts"": 31}",False,0.02,False,21.0,10.0,30.0,21,11,31,2.0,0,1,0,1,1,0,Female,40.0,PhD,22,7,Other,0.0,0.0,0.0,Less than once a month,Less than once a month,Stocks,Do not know,NG,1000,1000.0
1990,oi34lwfp,tcbozsj9,2,Trade_ends,2021-11-17 18:28:20.372907+00:00,"{""currentPrice"": 12, ""priceIndex"": 2, ""secs_since_round_starts"": 6}",False,0.02,False,12.0,10.0,30.0,12,2,6,2.0,0,1,0,0,1,0,Female,49.0,master,22,10,Other,1.0,1.0,1.0,Less than once a month,Less than once a month,Stocks,No,GB,1000,1000.0
1991,j3tvg2jr,tcbozsj9,2,Trade_ends,2021-11-17 18:28:23.426738+00:00,"{""currentPrice"": 20, ""priceIndex"": 12, ""secs_since_round_starts"": 26}",True,0.02,False,20.0,10.0,30.0,20,12,26,2.0,0,1,0,0,1,1,Male,32.0,MBA,10,10,Other,1.0,1.0,1.0,Monthly,Multiple times a day,Stocks,Yes,US,1000,1000.0
1992,7zty628a,tcbozsj9,2,Trade_ends,2021-11-17 18:28:24.376404+00:00,"{""currentPrice"": 0, ""priceIndex"": 25, ""secs_since_round_starts"": 50}",False,0.02,False,0.0,10.0,30.0,0,25,50,2.0,1,0,0,0,1,0,Male,24.0,master,10,10,Other Management,0.0,1.0,0.0,Less than once a month,Daily,Cryptocurrencies,No,BG,50,0.0
1998,ym2ds9cf,xm39f2ij,2,Trade_ends,2021-11-17 18:28:41.487688+00:00,"{""currentPrice"": 16, ""priceIndex"": 7, ""secs_since_round_starts"": 16}",False,0.02,False,16.0,10.0,30.0,16,7,16,2.0,0,1,0,0,1,0,Female,33.0,undergraduate: 4th year,21,4,Other,1.0,1.0,1.0,Daily,Daily,Stocks,No,CA,1000,1000.0
2006,rh2jcjcj,tcbozsj9,2,Trade_ends,2021-11-17 18:29:01.684812+00:00,"{""currentPrice"": 37, ""priceIndex"": 30, ""secs_since_round_starts"": 60}",False,0.02,False,37.0,10.0,30.0,37,30,60,2.0,0,0,1,0,1,0,Female,30.0,master,50,6,Other,0.0,1.0,0.0,Monthly,Daily,Stocks,Do not know,US,60,1000.0
2034,2je1hqot,tcbozsj9,2,Trade_ends,2021-11-17 18:30:09.086983+00:00,"{""currentPrice"": 25, ""priceIndex"": 12, ""secs_since_round_starts"": 25}",True,0.02,False,25.0,10.0,30.0,25,12,25,2.0,0,1,0,0,1,1,Male,25.0,master,8,8,Other,0.0,0.0,1.0,Weekly,Daily,Bonds,Yes,US,1000,1000.0
2039,t6cfhe7m,tcbozsj9,2,Trade_ends,2021-11-17 18:30:22.840597+00:00,"{""currentPrice"": 0, ""priceIndex"": 4, ""secs_since_round_starts"": 8}",False,0.02,False,0.0,10.0,30.0,0,4,8,2.0,1,0,0,0,1,0,Male,45.0,master,19,8,Other,0.0,0.0,0.0,Less than once a month,Less than once a month,Bonds,No,US,8,0.0
2043,2mzdualp,tcbozsj9,2,Trade_ends,2021-11-17 18:30:35.927007+00:00,"{""currentPrice"": 32, ""priceIndex"": 30, ""secs_since_round_starts"": 60}",False,0.02,False,32.0,10.0,30.0,32,30,60,2.0,0,0,1,0,1,0,Male,38.0,PhD,10,10,Other,1.0,1.0,1.0,Weekly,Daily,Stocks,Yes,CN,60,1000.0
2049,mgnzivyw,tcbozsj9,2,Trade_ends,2021-11-17 18:30:54.168412+00:00,"{""currentPrice"": 22, ""priceIndex"": 16, ""secs_since_round_starts"": 34}",True,0.02,False,22.0,10.0,30.0,22,16,34,2.0,0,1,0,0,1,1,Male,29.0,undergraduate: 4th year,11,11,Other,1.0,1.0,1.0,Monthly,Weekly,Stocks,No,GB,1000,1000.0
2052,l4dexb8r,tcbozsj9,2,Trade_ends,2021-11-17 18:31:03.312811+00:00,"{""currentPrice"": 32, ""priceIndex"": 18, ""secs_since_round_starts"": 39}",False,0.02,False,32.0,10.0,30.0,32,18,39,2.0,0,1,0,0,1,0,Male,55.0,master,33,9,Other Management,0.0,1.0,0.0,Less than once a month,Less than once a month,Bonds,No,GB,1000,1000.0
2054,rolr3er9,tcbozsj9,2,Trade_ends,2021-11-17 18:31:10.627784+00:00,"{""currentPrice"": 12, ""priceIndex"": 3, ""secs_since_round_starts"": 10}",False,0.02,False,12.0,10.0,30.0,12,3,10,2.0,0,1,0,0,1,0,Male,48.0,master,24,7,Other,0.0,1.0,1.0,Monthly,Weekly,Stocks,No,US,1000,1000.0
2060,2cnrppop,tcbozsj9,2,Trade_ends,2021-11-17 18:31:21.784082+00:00,"{""currentPrice"": 0, ""priceIndex"": 10, ""secs_since_round_starts"": 20}",False,0.02,False,0.0,10.0,30.0,0,10,20,2.0,1,0,0,0,1,0,Male,27.0,master,29,10,Other,0.0,1.0,0.0,Less than once a month,Monthly,Stocks,No,GB,20,0.0
2074,fl9hlxrt,tcbozsj9,2,Trade_ends,2021-11-17 18:31:58.767729+00:00,"{""currentPrice"": 20, ""priceIndex"": 7, ""secs_since_round_starts"": 16}",False,0.02,False,20.0,10.0,30.0,20,7,16,2.0,0,1,0,0,1,0,Male,40.0,master,22,6,Economics,1.0,0.0,0.0,Monthly,Monthly,Stocks,No,GB,1000,1000.0
2077,uq1xa789,tcbozsj9,2,Trade_ends,2021-11-17 18:32:12.202095+00:00,"{""currentPrice"": 31, ""priceIndex"": 19, ""secs_since_round_starts"": 41}",False,0.02,False,31.0,10.0,30.0,31,19,41,2.0,0,1,0,0,1,0,Male,47.0,MBA,30,11,Finance,1.0,1.0,0.0,Monthly,Weekly,Stocks,No,IN,1000,1000.0
2083,c2qtxbm4,tcbozsj9,2,Trade_ends,2021-11-17 18:32:37.100599+00:00,"{""currentPrice"": 0, ""priceIndex"": 27, ""secs_since_round_starts"": 54}",False,0.02,False,0.0,10.0,30.0,0,27,54,2.0,1,0,0,0,1,0,Male,43.0,master,10,10,Other,0.0,1.0,1.0,Less than once a month,Less than once a month,Cryptocurrencies,No,GB,54,0.0
2088,znibfxcr,tcbozsj9,2,Trade_ends,2021-11-17 18:32:55.193028+00:00,"{""currentPrice"": 0, ""priceIndex"": 12, ""secs_since_round_starts"": 24}",True,0.02,False,0.0,10.0,30.0,0,12,24,2.0,1,0,0,0,1,1,Female,31.0,master,7,7,Other,0.0,1.0,0.0,Less than once a month,Weekly,Stocks,No,US,24,0.0
2105,tditdyzg,tcbozsj9,2,Trade_ends,2021-11-17 18:33:56.271347+00:00,"{""currentPrice"": 0, ""priceIndex"": 5, ""secs_since_round_starts"": 10}",False,0.02,False,0.0,10.0,30.0,0,5,10,2.0,1,0,0,0,1,0,Female,32.0,master,19,5,Other,0.0,1.0,1.0,Less than once a month,Daily,Cryptocurrencies,No,AM,10,0.0
2136,tesabvu8,tcbozsj9,2,Trade_ends,2021-11-17 18:35:44.658600+00:00,"{""currentPrice"": 19, ""priceIndex"": 12, ""secs_since_round_starts"": 26}",True,0.02,False,19.0,10.0,30.0,19,12,26,2.0,0,1,0,0,1,1,Male,76.0,master,24,5,Other Management,0.0,1.0,1.0,Monthly,Less than once a month,Bonds,No,GB,1000,1000.0
2146,ascdpvqx,tcbozsj9,2,Trade_ends,2021-11-17 18:36:23.843435+00:00,"{""currentPrice"": 0, ""priceIndex"": 5, ""secs_since_round_starts"": 10}",False,0.02,False,0.0,10.0,30.0,0,5,10,2.0,1,0,0,0,1,0,Female,24.0,MBA,37,9,Other Management,1.0,1.0,0.0,Less than once a month,Less than once a month,Stocks,No,US,10,0.0
2153,djj1fmdq,tcbozsj9,2,Trade_ends,2021-11-17 18:36:42.993829+00:00,"{""currentPrice"": 46, ""priceIndex"": 30, ""secs_since_round_starts"": 60}",True,0.02,False,46.0,10.0,30.0,46,30,60,2.0,0,0,1,0,1,1,Female,32.0,master,49,6,Other,1.0,1.0,0.0,Less than once a month,Less than once a month,Stocks,No,GB,60,1000.0
2155,i4cxy7jp,tcbozsj9,2,Trade_ends,2021-11-17 18:36:48.686294+00:00,"{""currentPrice"": 0, ""priceIndex"": 23, ""secs_since_round_starts"": 46}",False,0.02,False,0.0,10.0,30.0,0,23,46,2.0,1,0,0,0,1,0,Male,31.0,master,29,10,Other,0.0,1.0,1.0,Daily,Daily,Stocks,No,IN,46,0.0
2156,a0x7tveo,tcbozsj9,2,Trade_ends,2021-11-17 18:36:51.441452+00:00,"{""currentPrice"": 45, ""priceIndex"": 30, ""secs_since_round_starts"": 60}",False,0.02,False,45.0,10.0,30.0,45,30,60,2.0,0,0,1,0,1,0,Female,66.0,PhD,10,10,Other,0.0,1.0,0.0,Less than once a month,Less than once a month,Stocks,No,GB,60,1000.0
2166,2cap8j1x,tcbozsj9,2,Trade_ends,2021-11-17 18:37:16.991273+00:00,"{""currentPrice"": 37, ""priceIndex"": 30, ""secs_since_round_starts"": 60}",False,0.02,False,37.0,10.0,30.0,37,30,60,2.0,0,0,1,0,1,0,Male,59.0,master,9,9,Other,0.0,1.0,1.0,Monthly,Daily,Stocks,No,GB,60,1000.0
2170,qqbchndo,tcbozsj9,2,Trade_ends,2021-11-17 18:37:36.946758+00:00,"{""currentPrice"": 23, ""priceIndex"": 15, ""secs_since_round_starts"": 35}",True,0.02,False,23.0,10.0,30.0,23,15,35,2.0,0,1,0,0,1,1,Female,55.0,MBA,11,11,Finance,1.0,1.0,1.0,Daily,Multiple times a day,Stocks,No,US,1000,1000.0
2174,itmckwqf,tcbozsj9,2,Trade_ends,2021-11-17 18:38:04.502984+00:00,"{""currentPrice"": 22, ""priceIndex"": 13, ""secs_since_round_starts"": 29}",True,0.02,False,22.0,10.0,30.0,22,13,29,2.0,0,1,0,0,1,1,Male,26.0,master,6,6,Other,0.0,1.0,1.0,Monthly,Daily,Stocks,No,US,1000,1000.0
2193,je00b4ln,tcbozsj9,2,Trade_ends,2021-11-17 18:39:22.094066+00:00,"{""currentPrice"": 18, ""priceIndex"": 9, ""secs_since_round_starts"": 20}",False,0.02,False,18.0,10.0,30.0,18,9,20,2.0,0,1,0,0,1,0,Female,37.0,master,25,8,Other,1.0,1.0,1.0,Weekly,Weekly,Stocks,No,US,1000,1000.0
2196,rkin4gg6,tcbozsj9,2,Trade_ends,2021-11-17 18:39:34.360159+00:00,"{""currentPrice"": 0, ""priceIndex"": 18, ""secs_since_round_starts"": 36}",True,0.02,False,0.0,10.0,30.0,0,18,36,2.0,1,0,0,0,1,1,Male,42.0,PhD,38,8,Other,0.0,0.0,0.0,Less than once a month,Weekly,Stocks,Do not know,GB,36,0.0
2202,fsb4xjzq,tcbozsj9,2,Trade_ends,2021-11-17 18:39:47.070234+00:00,"{""currentPrice"": 12, ""priceIndex"": 3, ""secs_since_round_starts"": 7}",True,0.02,False,12.0,10.0,30.0,12,3,7,2.0,0,1,0,0,1,1,Male,35.0,PhD,22,8,Other,0.0,1.0,1.0,Daily,Multiple times a day,Stocks,No,US,1000,1000.0
2209,2w1kwqvy,tcbozsj9,2,Trade_ends,2021-11-17 18:40:06.291415+00:00,"{""currentPrice"": 32, ""priceIndex"": 18, ""secs_since_round_starts"": 38}",False,0.02,False,32.0,10.0,30.0,32,18,38,2.0,0,1,0,0,1,0,Male,34.0,master,37,9,Other,0.0,1.0,1.0,Monthly,Daily,Stocks,No,US,1000,1000.0
2217,txl3grvu,tcbozsj9,2,Trade_ends,2021-11-17 18:40:25.613109+00:00,"{""currentPrice"": 42, ""priceIndex"": 30, ""secs_since_round_starts"": 60}",False,0.02,False,42.0,10.0,30.0,42,30,60,2.0,0,0,1,0,1,0,Male,46.0,PhD,46,7,Other,1.0,1.0,1.0,Weekly,Daily,Stocks,No,CA,60,1000.0
2219,9q6xkf5b,tcbozsj9,2,Trade_ends,2021-11-17 18:40:32.472741+00:00,"{""currentPrice"": 22, ""priceIndex"": 14, ""secs_since_round_starts"": 30}",True,0.02,False,22.0,10.0,30.0,22,14,30,2.0,0,1,0,0,1,1,Male,35.0,master,30,8,Other,0.0,1.0,1.0,Weekly,Daily,Stocks,No,US,1000,1000.0
2220,7q6quhew,tcbozsj9,2,Trade_ends,2021-11-17 18:40:35.343841+00:00,"{""currentPrice"": 15, ""priceIndex"": 6, ""secs_since_round_starts"": 15}",False,0.02,False,15.0,10.0,30.0,15,6,15,2.0,0,1,0,0,1,0,Male,33.0,master,22,9,Other,0.0,1.0,1.0,Less than once a month,Less than once a month,Stocks,No,GB,1000,1000.0
2227,tb5eotm1,tcbozsj9,2,Trade_ends,2021-11-17 18:40:51.133872+00:00,"{""currentPrice"": 0, ""priceIndex"": 15, ""secs_since_round_starts"": 30}",True,0.02,False,0.0,10.0,30.0,0,15,30,2.0,1,0,0,0,1,1,Female,27.0,PhD,10,10,Other,0.0,0.0,0.0,Less than once a month,Less than once a month,Cryptocurrencies,No,US,30,0.0
2231,tzp0xdp6,tcbozsj9,2,Trade_ends,2021-11-17 18:40:54.397503+00:00,"{""currentPrice"": 40, ""priceIndex"": 30, ""secs_since_round_starts"": 60}",True,0.02,False,40.0,10.0,30.0,40,30,60,2.0,0,0,1,0,1,1,Male,42.0,PhD,9,9,Other,0.0,1.0,0.0,Less than once a month,Less than once a month,Stocks,No,CA,60,1000.0
2245,jkdqea1r,tcbozsj9,2,Trade_ends,2021-11-17 18:41:32.163931+00:00,"{""currentPrice"": 41, ""priceIndex"": 30, ""secs_since_round_starts"": 60}",False,0.02,False,41.0,10.0,30.0,41,30,60,2.0,0,0,1,0,1,0,Male,25.0,master,44,9,Other,0.0,1.0,1.0,Less than once a month,Daily,Stocks,No,LT,60,1000.0
2252,5v86abu6,tcbozsj9,2,Trade_ends,2021-11-17 18:41:38.558246+00:00,"{""currentPrice"": 11, ""priceIndex"": 2, ""secs_since_round_starts"": 5}",False,0.02,False,11.0,10.0,30.0,11,2,5,2.0,0,1,0,0,1,0,Male,37.0,PhD,20,9,Other,1.0,1.0,1.0,Monthly,Monthly,Stocks,No,US,1000,1000.0
2273,1q9dxaf8,tcbozsj9,2,Trade_ends,2021-11-17 18:42:41.621435+00:00,"{""currentPrice"": 24, ""priceIndex"": 13, ""secs_since_round_starts"": 41}",True,0.02,False,24.0,10.0,30.0,24,13,41,2.0,0,1,0,0,1,1,Female,37.0,undergraduate: 3d year,6,6,Other,0.0,1.0,0.0,Less than once a month,Weekly,Stocks,No,GB,1000,1000.0
2285,6hb3yp39,tcbozsj9,2,Trade_ends,2021-11-17 18:43:21.210626+00:00,"{""currentPrice"": 0, ""priceIndex"": 1, ""secs_since_round_starts"": 2}",False,0.02,False,0.0,10.0,30.0,0,1,2,2.0,1,0,0,0,1,0,Male,49.0,undergraduate: 4th year,10,10,Other,0.0,1.0,1.0,Multiple times a day,Daily,"Derivatives (Options, Futures)",Yes,CN,2,0.0
2290,43hstgal,xm39f2ij,2,Trade_ends,2021-11-17 18:43:33.618702+00:00,"{""currentPrice"": 17, ""priceIndex"": 9, ""secs_since_round_starts"": 21}",False,0.02,False,17.0,10.0,30.0,17,9,21,2.0,0,1,0,0,1,0,Female,24.0,undergraduate: 4th year,21,4,Other,0.0,1.0,1.0,Daily,Daily,Cryptocurrencies,Do not know,US,1000,1000.0
2298,6bh10mzz,tcbozsj9,2,Trade_ends,2021-11-17 18:44:09.796452+00:00,"{""currentPrice"": 17, ""priceIndex"": 7, ""secs_since_round_starts"": 16}",False,0.02,False,17.0,10.0,30.0,17,7,16,2.0,0,1,0,0,1,0,Male,43.0,master,24,9,Other Management,0.0,1.0,1.0,Monthly,Daily,Cryptocurrencies,No,US,1000,1000.0
2302,73hcrqkx,tcbozsj9,2,Trade_ends,2021-11-17 18:44:29.749461+00:00,"{""currentPrice"": 14, ""priceIndex"": 4, ""secs_since_round_starts"": 11}",True,0.02,False,14.0,10.0,30.0,14,4,11,2.0,0,1,0,0,1,1,Male,34.0,master,7,7,Finance,1.0,1.0,1.0,Monthly,Daily,Stocks,Do not know,US,1000,1000.0
2303,1p05jxnc,tcbozsj9,2,Trade_ends,2021-11-17 18:44:31.576730+00:00,"{""currentPrice"": 34, ""priceIndex"": 30, ""secs_since_round_starts"": 60}",True,0.02,False,34.0,10.0,30.0,34,30,60,2.0,0,0,1,0,1,1,Male,32.0,master,46,8,Other,0.0,1.0,1.0,Monthly,Multiple times a day,Stocks,No,US,60,1000.0
2345,0p6d1nc1,tcbozsj9,2,Trade_ends,2021-11-17 18:49:15.644008+00:00,"{""currentPrice"": 0, ""priceIndex"": 17, ""secs_since_round_starts"": 38}",False,0.02,False,0.0,10.0,30.0,0,17,38,2.0,1,0,0,1,1,0,Female,26.0,MBA,8,8,Finance,1.0,1.0,0.0,Less than once a month,Less than once a month,Stocks,No,US,38,0.0
2349,ep911jbl,tcbozsj9,2,Trade_ends,2021-11-17 18:50:02.032013+00:00,"{""currentPrice"": 0, ""priceIndex"": 26, ""secs_since_round_starts"": 52}",True,0.02,False,0.0,10.0,30.0,0,26,52,2.0,1,0,0,0,1,1,Male,32.0,master,28,4,Finance,1.0,1.0,0.0,Weekly,Weekly,Cryptocurrencies,No,US,52,0.0
2351,i538xk10,tcbozsj9,2,Trade_ends,2021-11-17 18:50:14.885204+00:00,"{""currentPrice"": 27, ""priceIndex"": 13, ""secs_since_round_starts"": 28}",True,0.02,False,27.0,10.0,30.0,27,13,28,2.0,0,1,0,0,1,1,Male,36.0,master,24,9,Other,0.0,1.0,0.0,Less than once a month,Less than once a month,Stocks,No,US,1000,1000.0
2375,ksx6gl7u,tcbozsj9,2,Trade_ends,2021-11-17 19:05:31.846269+00:00,"{""currentPrice"": 28, ""priceIndex"": 23, ""secs_since_round_starts"": 48}",True,0.02,False,28.0,10.0,30.0,28,23,48,2.0,0,1,0,0,1,1,Female,47.0,master,10,10,Other Management,0.0,1.0,1.0,Weekly,Daily,Cryptocurrencies,Yes,GB,1000,1000.0
2383,tchj6zai,tcbozsj9,2,Trade_ends,2021-11-17 19:11:31.931233+00:00,"{""currentPrice"": 18, ""priceIndex"": 9, ""secs_since_round_starts"": 22}",True,0.02,False,18.0,10.0,30.0,18,9,22,2.0,0,1,0,0,1,1,Female,62.0,master,4,4,Other,0.0,1.0,0.0,Less than once a month,Less than once a month,Stocks,No,GB,1000,1000.0
2387,d2ior75d,tcbozsj9,2,Trade_ends,2021-11-17 19:12:52.880769+00:00,"{""currentPrice"": 11, ""priceIndex"": 1, ""secs_since_round_starts"": 5}",False,0.02,False,11.0,10.0,30.0,11,1,5,2.0,0,1,0,0,1,0,Male,38.0,master,21,11,Other,1.0,1.0,1.0,Weekly,Weekly,Stocks,No,US,1000,1000.0
2396,xr55w1dd,tcbozsj9,2,Trade_ends,2021-11-17 19:14:28.684636+00:00,"{""currentPrice"": 0, ""priceIndex"": 5, ""secs_since_round_starts"": 10}",False,0.02,False,0.0,10.0,30.0,0,5,10,2.0,1,0,0,0,1,0,Male,35.0,master,40,9,Other Management,0.0,1.0,1.0,Weekly,Daily,Stocks,No,GB,10,0.0
2408,95pmiw92,tcbozsj9,2,Trade_ends,2021-11-17 19:29:35.795687+00:00,"{""currentPrice"": 30, ""priceIndex"": 30, ""secs_since_round_starts"": 60}",False,0.02,False,30.0,10.0,30.0,30,30,60,2.0,0,0,1,0,1,0,Male,41.0,undergraduate: 4th year,7,7,Finance,1.0,1.0,1.0,Weekly,Weekly,Stocks,No,CA,60,1000.0
2410,yqq1qbad,cv9yjdhy,2,Trade_ends,2021-11-17 19:30:54.658001+00:00,"{""currentPrice"": 0, ""priceIndex"": 4, ""secs_since_round_starts"": 8}",False,0.02,False,0.0,10.0,30.0,0,4,8,2.0,1,0,0,0,1,0,Male,27.0,undergraduate: 4th year,26,8,Other Management,1.0,1.0,1.0,Monthly,Weekly,Stocks,Yes,FR,8,0.0
2416,glurjtuf,hgp2owka,2,Trade_ends,2021-11-17 19:32:17.510952+00:00,"{""currentPrice"": 0, ""priceIndex"": 6, ""secs_since_round_starts"": 12}",False,0.02,False,0.0,10.0,30.0,0,6,12,2.0,1,0,0,0,1,0,Female,28.0,master,10,10,Other,0.0,0.0,1.0,Less than once a month,Less than once a month,Stocks,No,CA,12,0.0
2418,1uwwtd38,cv9yjdhy,2,Trade_ends,2021-11-17 19:32:18.372455+00:00,"{""currentPrice"": 21, ""priceIndex"": 8, ""secs_since_round_starts"": 27}",True,0.02,False,21.0,10.0,30.0,21,8,27,2.0,0,1,0,0,1,1,Male,65.0,high-school graduate,29,7,Other,0.0,0.0,0.0,Less than once a month,Less than once a month,Stocks,Do not know,GB,1000,1000.0
2428,02kxtvev,hgp2owka,2,Trade_ends,2021-11-17 19:33:56.252107+00:00,"{""currentPrice"": 0, ""priceIndex"": 16, ""secs_since_round_starts"": 32}",True,0.02,False,0.0,10.0,30.0,0,16,32,2.0,1,0,0,0,1,1,Female,29.0,master,8,8,Other,0.0,1.0,1.0,Monthly,Weekly,Stocks,No,CA,32,0.0
2432,fy1qzy6r,hgp2owka,2,Trade_ends,2021-11-17 19:34:33.347890+00:00,"{""currentPrice"": 18, ""priceIndex"": 8, ""secs_since_round_starts"": 18}",True,0.02,False,18.0,10.0,30.0,18,8,18,2.0,0,1,0,0,1,1,Male,31.0,master,30,10,Other,0.0,1.0,1.0,Monthly,Multiple times a day,Stocks,No,AU,1000,1000.0
2445,fbiwtzd0,hgp2owka,3,Trade_ends,2021-11-17 19:35:30.374739+00:00,"{""currentPrice"": 0, ""priceIndex"": 3, ""secs_since_round_starts"": 6}",False,0.05,False,0.0,10.0,30.0,0,3,6,2.0,1,0,0,0,1,0,Female,38.0,master,40,7,Other Management,0.0,0.0,0.0,Less than once a month,Less than once a month,Cryptocurrencies,No,GB,6,0.0
2454,kw96cta5,hgp2owka,2,Trade_ends,2021-11-17 19:36:20.415058+00:00,"{""currentPrice"": 17, ""priceIndex"": 7, ""secs_since_round_starts"": 18}",False,0.02,False,17.0,10.0,30.0,17,7,18,2.0,0,1,0,0,1,0,Male,37.0,MBA,11,11,Economics,0.0,1.0,0.0,Less than once a month,Monthly,Stocks,No,CA,1000,1000.0
2470,f2mhqgbb,tcbozsj9,2,Trade_ends,2021-11-17 19:38:53.247497+00:00,"{""currentPrice"": 19, ""priceIndex"": 8, ""secs_since_round_starts"": 18}",True,0.02,False,19.0,10.0,30.0,19,8,18,2.0,0,1,0,0,1,1,Female,51.0,master,22,8,Other,0.0,1.0,1.0,Less than once a month,Monthly,Stocks,No,GB,1000,1000.0
2475,mtpligas,hgp2owka,2,Trade_ends,2021-11-17 19:40:30.204505+00:00,"{""currentPrice"": 47, ""priceIndex"": 30, ""secs_since_round_starts"": 60}",False,0.02,False,47.0,10.0,30.0,47,30,60,2.0,0,0,1,0,1,0,Female,34.0,master,55,8,Other,0.0,1.0,1.0,Monthly,Weekly,Stocks,Do not know,NP,60,1000.0
2482,0ghaw60v,cv9yjdhy,2,Trade_ends,2021-11-17 19:41:54.081220+00:00,"{""currentPrice"": 41, ""priceIndex"": 30, ""secs_since_round_starts"": 60}",False,0.02,False,41.0,10.0,30.0,41,30,60,2.0,0,0,1,0,1,0,,,,0,0,,,,,,,,,CA,60,1000.0
2484,845dqr5o,cv9yjdhy,2,Trade_ends,2021-11-17 19:42:02.287373+00:00,"{""currentPrice"": 18, ""priceIndex"": 7, ""secs_since_round_starts"": 16}",False,0.02,False,18.0,10.0,30.0,18,7,16,2.0,0,1,0,0,1,0,Female,23.0,undergraduate: 3d year,27,11,Other,1.0,1.0,1.0,Monthly,Weekly,Cryptocurrencies,No,CA,1000,1000.0
2487,80mtg8un,cv9yjdhy,3,Trade_ends,2021-11-17 19:42:45.547178+00:00,"{""currentPrice"": 52, ""priceIndex"": 30, ""secs_since_round_starts"": 60}",True,0.05,False,52.0,10.0,30.0,52,30,60,2.0,0,0,1,0,1,1,Female,32.0,undergraduate: 3d year,6,6,Other,0.0,1.0,1.0,Less than once a month,Weekly,"Derivatives (Options, Futures)",No,US,60,1000.0
2489,l9d8t8qj,hgp2owka,2,Trade_ends,2021-11-17 19:42:52.958765+00:00,"{""currentPrice"": 37, ""priceIndex"": 30, ""secs_since_round_starts"": 60}",False,0.02,False,37.0,10.0,30.0,37,30,60,2.0,0,0,1,0,1,0,Male,28.0,master,45,11,Other,0.0,1.0,0.0,Monthly,Daily,Cryptocurrencies,No,GB,60,1000.0
2491,a5gkn0fi,cv9yjdhy,2,Trade_ends,2021-11-17 19:42:58.984478+00:00,"{""currentPrice"": 0, ""priceIndex"": 2, ""secs_since_round_starts"": 4}",False,0.02,False,0.0,10.0,30.0,0,2,4,2.0,1,0,0,0,1,0,Male,28.0,undergraduate: 4th year,24,6,Other,0.0,1.0,1.0,Less than once a month,Less than once a month,Stocks,No,CA,4,0.0
2493,ai9ya3kf,cv9yjdhy,2,Trade_ends,2021-11-17 19:43:09.351364+00:00,"{""currentPrice"": 0, ""priceIndex"": 1, ""secs_since_round_starts"": 2}",True,0.02,False,0.0,10.0,30.0,0,1,2,2.0,1,0,0,0,1,1,Male,29.0,undergraduate: 3d year,33,8,Other,0.0,1.0,1.0,Monthly,Daily,Stocks,No,GB,2,0.0
2496,b7yjt82u,cv9yjdhy,2,Trade_ends,2021-11-17 19:43:16.067510+00:00,"{""currentPrice"": 0, ""priceIndex"": 12, ""secs_since_round_starts"": 24}",True,0.02,False,0.0,10.0,30.0,0,12,24,2.0,1,0,0,0,1,1,Male,48.0,undergraduate: 3d year,31,9,Other,0.0,1.0,0.0,Less than once a month,Daily,Stocks,No,GB,24,0.0
2534,l37mqm0y,hgp2owka,2,Trade_ends,2021-11-17 19:46:59.821703+00:00,"{""currentPrice"": 20, ""priceIndex"": 12, ""secs_since_round_starts"": 28}",True,0.02,False,20.0,10.0,30.0,20,12,28,2.0,0,1,0,0,1,1,Male,62.0,master,29,9,Other,0.0,1.0,0.0,Less than once a month,Daily,Stocks,No,CA,1000,1000.0
2542,unz2rrax,cv9yjdhy,2,Trade_ends,2021-11-17 19:49:06.582587+00:00,"{""currentPrice"": 13, ""priceIndex"": 2, ""secs_since_round_starts"": 6}",False,0.02,False,13.0,10.0,30.0,13,2,6,2.0,0,1,0,0,1,0,Female,53.0,high-school graduate,21,5,Other Management,0.0,0.0,0.0,Less than once a month,Less than once a month,Stocks,No,GB,1000,1000.0
2547,znouh34y,hgp2owka,2,Trade_ends,2021-11-17 19:49:54.227163+00:00,"{""currentPrice"": 0, ""priceIndex"": 7, ""secs_since_round_starts"": 14}",True,0.02,False,0.0,10.0,30.0,0,7,14,2.0,1,0,0,0,1,1,Female,37.0,PhD,8,8,Other,0.0,1.0,0.0,Less than once a month,Monthly,Stocks,No,GB,14,0.0
2552,5ruautiw,cv9yjdhy,2,Trade_ends,2021-11-17 19:50:36.470269+00:00,"{""currentPrice"": 23, ""priceIndex"": 13, ""secs_since_round_starts"": 29}",True,0.02,False,23.0,10.0,30.0,23,13,29,2.0,0,1,0,0,1,1,Female,20.0,undergraduate: 2nd year,30,7,Other,0.0,1.0,1.0,Monthly,Weekly,Cryptocurrencies,Yes,GB,1000,1000.0
2558,l9emzqa8,hgp2owka,2,Trade_ends,2021-11-17 19:51:27.548554+00:00,"{""currentPrice"": 0, ""priceIndex"": 22, ""secs_since_round_starts"": 44}",False,0.02,False,0.0,10.0,30.0,0,22,44,2.0,1,0,0,0,1,0,Female,29.0,master,38,3,Other,0.0,0.0,0.0,Less than once a month,Less than once a month,Bonds,Do not know,CA,44,0.0
2560,8izv4f1j,hgp2owka,2,Trade_ends,2021-11-17 19:51:47.996658+00:00,"{""currentPrice"": 14, ""priceIndex"": 2, ""secs_since_round_starts"": 7}",True,0.02,False,14.0,10.0,30.0,14,2,7,2.0,0,1,0,0,1,1,Female,27.0,master,19,8,Other,0.0,1.0,1.0,Monthly,Weekly,Stocks,No,TH,1000,1000.0
