,owner__participant__code,owner__session__code,owner__round_number,name,timestamp,body,owner__gamified,owner__crash_probability,owner__training,owner__exit_price,owner__subsession__starting_price,owner__subsession__max_length,current_price,priceIndex,secs_since_round_starts,subsession.tick_frequency,exit_crash,exit_sell,exit_hodl,mindchanges,exit_correct,gamified_first,player.gender,player.age,player.education,participant.payoff,FinScore,player.study_major,player.course_financial,player.trading_experience,player.online_trading_experience,player.trading_frequency,player.portfolio_frequency,player.asset_class,player.use_leverage,player.nationality,censoring,censoring_price
0,r9gp2bpz,tcbozsj9,2,Trade_ends,2021-11-17 17:12:21.394181+00:00,"{""currentPrice"": 0, ""priceIndex"": 5, ""secs_since_round_starts"": 10}",False,0.02,False,0.0,10.0,30.0,0,5,10,2.0,1,0,0,0,1,0,Male,51.0,master,40,8,Finance,1.0,1.0,0.0,Less than once a month,Weekly,Stocks,No,GB,10,0.0
1,r9gp2bpz,tcbozsj9,3,Trade_ends,2021-11-17 17:12:55.052232+00:00,"{""currentPrice"": 21, ""priceIndex"": 11, ""secs_since_round_starts"": 25}",False,0.05,False,21.0,10.0,30.0,21,11,25,2.0,0,1,0,0,1,0,Male,51.0,master,40,8,Finance,1.0,1.0,0.0,Less than once a month,Weekly,Stocks,No,GB,1000,1000.0
2,qkwv9q2a,tcbozsj9,2,Trade_ends,2021-11-17 17:12:56.581275+00:00,"{""currentPrice"": 0, ""priceIndex"": 5, ""secs_since_round_starts"": 10}",True,0.02,False,0.0,10.0,30.0,0,5,10,2.0,1,0,0,0,1,1,Male,24.0,master,6,6,Other,0.0,1.0,1.0,Weekly,Weekly,Stocks,No,GB,10,0.0
3,qkwv9q2a,tcbozsj9,3,Trade_ends,2021-11-17 17:13:19.705114+00:00,"{""currentPrice"": 0, ""priceIndex"": 7, ""secs_since_round_starts"": 14}",True,0.05,False,0.0,10.0,30.0,0,7,14,2.0,1,0,0,0,1,1,Male,24.0,master,6,6,Other,0.0,1.0,1.0,Weekly,Weekly,Stocks,No,GB,14,0.0
4,r9gp2bpz,tcbozsj9,4,Trade_ends,2021-11-17 17:13:47.752467+00:00,"{""currentPrice"": 35, ""priceIndex"": 21, ""secs_since_round_starts"": 45}",False,0.02,False,35.0,10.0,30.0,35,21,45,2.0,0,1,0,0,1,0,Male,51.0,master,40,8,Finance,1.0,1.0,0.0,Less than once a month,Weekly,Stocks,No,GB,1000,1000.0
5,qkwv9q2a,tcbozsj9,4,Trade_ends,2021-11-17 17:13:57.293981+00:00,"{""currentPrice"": 18, ""priceIndex"": 15, ""secs_since_round_starts"": 32}",True,0.02,False,18.0,10.0,30.0,18,15,32,2.0,0,1,0,0,1,1,Male,24.0,master,6,6,Other,0.0,1.0,1.0,Weekly,Weekly,Stocks,No,GB,1000,1000.0
6,r9gp2bpz,tcbozsj9,5,Trade_ends,2021-11-17 17:14:16.732607+00:00,"{""currentPrice"": 22, ""priceIndex"": 10, ""secs_since_round_starts"": 22}",False,0.05,False,22.0,10.0,30.0,22,10,22,2.0,0,1,0,0,1,0,Male,51.0,master,40,8,Finance,1.0,1.0,0.0,Less than once a month,Weekly,Stocks,No,GB,1000,1000.0
7,qkwv9q2a,tcbozsj9,5,Trade_ends,2021-11-17 17:14:17.356052+00:00,"{""currentPrice"": 0, ""priceIndex"": 8, ""secs_since_round_starts"": 16}",True,0.05,False,0.0,10.0,30.0,0,8,16,2.0,1,0,0,0,1,1,Male,24.0,master,6,6,Other,0.0,1.0,1.0,Weekly,Weekly,Stocks,No,GB,16,0.0
8,r9gp2bpz,tcbozsj9,6,Trade_ends,2021-11-17 17:14:25.588881+00:00,"{""currentPrice"": 0, ""priceIndex"": 2, ""secs_since_round_starts"": 4}",True,0.05,False,0.0,10.0,30.0,0,2,4,2.0,1,0,0,0,1,0,Male,51.0,master,40,8,Finance,1.0,1.0,0.0,Less than once a month,Weekly,Stocks,No,GB,4,0.0
9,qkwv9q2a,tcbozsj9,6,Trade_ends,2021-11-17 17:14:30.478447+00:00,"{""currentPrice"": 16, ""priceIndex"": 3, ""secs_since_round_starts"": 8}",False,0.05,False,16.0,10.0,30.0,16,3,8,2.0,0,1,0,0,1,1,Male,24.0,master,6,6,Other,0.0,1.0,1.0,Weekly,Weekly,Stocks,No,GB,1000,1000.0
10,qkwv9q2a,tcbozsj9,7,Trade_ends,2021-11-17 17:14:50.241416+00:00,"{""currentPrice"": 20, ""priceIndex"": 7, ""secs_since_round_starts"": 16}",False,0.02,False,20.0,10.0,30.0,20,7,16,2.0,0,1,0,0,1,1,Male,24.0,master,6,6,Other,0.0,1.0,1.0,Weekly,Weekly,Stocks,No,GB,1000,1000.0
11,r9gp2bpz,tcbozsj9,7,Trade_ends,2021-11-17 17:15:12.722235+00:00,"{""currentPrice"": 25, ""priceIndex"": 16, ""secs_since_round_starts"": 37}",True,0.02,False,25.0,10.0,30.0,25,16,37,2.0,0,1,0,0,1,0,Male,51.0,master,40,8,Finance,1.0,1.0,0.0,Less than once a month,Weekly,Stocks,No,GB,1000,1000.0
12,xf9m51xx,tcbozsj9,2,Trade_ends,2021-11-17 17:15:35.716603+00:00,"{""currentPrice"": 43, ""priceIndex"": 30, ""secs_since_round_starts"": 60}",True,0.02,False,43.0,10.0,30.0,43,30,60,2.0,0,0,1,0,1,1,Female,26.0,master,24,4,Other,0.0,1.0,1.0,Weekly,Weekly,Stocks,Do not know,GB,60,1000.0
13,qkwv9q2a,tcbozsj9,8,Trade_ends,2021-11-17 17:15:38.650798+00:00,"{""currentPrice"": 14, ""priceIndex"": 3, ""secs_since_round_starts"": 8}",False,0.05,False,14.0,10.0,30.0,14,3,8,2.0,0,1,0,0,1,1,Male,24.0,master,6,6,Other,0.0,1.0,1.0,Weekly,Weekly,Stocks,No,GB,1000,1000.0
14,qkwv9q2a,tcbozsj9,9,Trade_ends,2021-11-17 17:15:48.675876+00:00,"{""currentPrice"": 0, ""priceIndex"": 3, ""secs_since_round_starts"": 6}",False,0.02,False,0.0,10.0,30.0,0,3,6,2.0,1,0,0,0,1,1,Male,24.0,master,6,6,Other,0.0,1.0,1.0,Weekly,Weekly,Stocks,No,GB,6,0.0
15,r9gp2bpz,tcbozsj9,8,Trade_ends,2021-11-17 17:15:59.934961+00:00,"{""currentPrice"": 32, ""priceIndex"": 19, ""secs_since_round_starts"": 41}",True,0.05,False,32.0,10.0,30.0,32,19,41,2.0,0,1,0,0,1,0,Male,51.0,master,40,8,Finance,1.0,1.0,0.0,Less than once a month,Weekly,Stocks,No,GB,1000,1000.0
16,xf9m51xx,tcbozsj9,3,Trade_ends,2021-11-17 17:16:11.311460+00:00,"{""currentPrice"": 0, ""priceIndex"": 14, ""secs_since_round_starts"": 28}",True,0.05,False,0.0,10.0,30.0,0,14,28,2.0,1,0,0,0,1,1,Female,26.0,master,24,4,Other,0.0,1.0,1.0,Weekly,Weekly,Stocks,Do not know,GB,28,0.0
17,r9gp2bpz,tcbozsj9,9,Trade_ends,2021-11-17 17:16:19.255061+00:00,"{""currentPrice"": 0, ""priceIndex"": 6, ""secs_since_round_starts"": 12}",True,0.02,False,0.0,10.0,30.0,0,6,12,2.0,1,0,0,0,1,0,Male,51.0,master,40,8,Finance,1.0,1.0,0.0,Less than once a month,Weekly,Stocks,No,GB,12,0.0
18,xf9m51xx,tcbozsj9,4,Trade_ends,2021-11-17 17:16:22.055115+00:00,"{""currentPrice"": 0, ""priceIndex"": 2, ""secs_since_round_starts"": 4}",True,0.02,False,0.0,10.0,30.0,0,2,4,2.0,1,0,0,0,1,1,Female,26.0,master,24,4,Other,0.0,1.0,1.0,Weekly,Weekly,Stocks,Do not know,GB,4,0.0
19,xf9m51xx,tcbozsj9,5,Trade_ends,2021-11-17 17:16:48.006887+00:00,"{""currentPrice"": 20, ""priceIndex"": 9, ""secs_since_round_starts"": 20}",True,0.05,False,20.0,10.0,30.0,20,9,20,2.0,0,1,0,0,1,1,Female,26.0,master,24,4,Other,0.0,1.0,1.0,Weekly,Weekly,Stocks,Do not know,GB,1000,1000.0
20,xf9m51xx,tcbozsj9,6,Trade_ends,2021-11-17 17:17:19.228125+00:00,"{""currentPrice"": 0, ""priceIndex"": 13, ""secs_since_round_starts"": 26}",False,0.05,False,0.0,10.0,30.0,0,13,26,2.0,1,0,0,0,1,1,Female,26.0,master,24,4,Other,0.0,1.0,1.0,Weekly,Weekly,Stocks,Do not know,GB,26,0.0
21,pd1jf59e,tcbozsj9,2,Trade_ends,2021-11-17 17:17:21.331956+00:00,"{""currentPrice"": 33, ""priceIndex"": 27, ""secs_since_round_starts"": 59}",False,0.02,False,33.0,10.0,30.0,33,27,59,2.0,0,1,0,0,1,0,Female,57.0,MBA,6,6,Other,0.0,0.0,0.0,Less than once a month,Monthly,Stocks,Do not know,GB,1000,1000.0
22,xf9m51xx,tcbozsj9,7,Trade_ends,2021-11-17 17:17:44.204030+00:00,"{""currentPrice"": 20, ""priceIndex"": 9, ""secs_since_round_starts"": 20}",False,0.02,False,20.0,10.0,30.0,20,9,20,2.0,0,1,0,0,1,1,Female,26.0,master,24,4,Other,0.0,1.0,1.0,Weekly,Weekly,Stocks,Do not know,GB,1000,1000.0
23,pd1jf59e,tcbozsj9,3,Trade_ends,2021-11-17 17:17:46.646237+00:00,"{""currentPrice"": 0, ""priceIndex"": 8, ""secs_since_round_starts"": 16}",False,0.05,False,0.0,10.0,30.0,0,8,16,2.0,1,0,0,0,1,0,Female,57.0,MBA,6,6,Other,0.0,0.0,0.0,Less than once a month,Monthly,Stocks,Do not know,GB,16,0.0
24,pd1jf59e,tcbozsj9,4,Trade_ends,2021-11-17 17:18:05.868768+00:00,"{""currentPrice"": 0, ""priceIndex"": 5, ""secs_since_round_starts"": 10}",False,0.02,False,0.0,10.0,30.0,0,5,10,2.0,1,0,0,0,1,0,Female,57.0,MBA,6,6,Other,0.0,0.0,0.0,Less than once a month,Monthly,Stocks,Do not know,GB,10,0.0
25,xf9m51xx,tcbozsj9,8,Trade_ends,2021-11-17 17:18:06.260332+00:00,"{""currentPrice"": 20, ""priceIndex"": 8, ""secs_since_round_starts"": 18}",False,0.05,False,20.0,10.0,30.0,20,8,18,2.0,0,1,0,0,1,1,Female,26.0,master,24,4,Other,0.0,1.0,1.0,Weekly,Weekly,Stocks,Do not know,GB,1000,1000.0
26,s1t7vxc5,tcbozsj9,2,Trade_ends,2021-11-17 17:18:16.622935+00:00,"{""currentPrice"": 0, ""priceIndex"": 18, ""secs_since_round_starts"": 36}",False,0.02,False,0.0,10.0,30.0,0,18,36,2.0,1,0,0,0,1,0,Female,46.0,master,24,10,Other,0.0,1.0,0.0,Weekly,Daily,Stocks,No,GB,36,0.0
27,xf9m51xx,tcbozsj9,9,Trade_ends,2021-11-17 17:18:18.585923+00:00,"{""currentPrice"": 0, ""priceIndex"": 4, ""secs_since_round_starts"": 8}",False,0.02,False,0.0,10.0,30.0,0,4,8,2.0,1,0,0,0,1,1,Female,26.0,master,24,4,Other,0.0,1.0,1.0,Weekly,Weekly,Stocks,Do not know,GB,8,0.0
28,s1t7vxc5,tcbozsj9,3,Trade_ends,2021-11-17 17:18:46.370691+00:00,"{""currentPrice"": 14, ""priceIndex"": 8, ""secs_since_round_starts"": 19}",False,0.05,False,14.0,10.0,30.0,14,8,19,2.0,0,1,0,0,1,0,Female,46.0,master,24,10,Other,0.0,1.0,0.0,Weekly,Daily,Stocks,No,GB,1000,1000.0
29,pd1jf59e,tcbozsj9,5,Trade_ends,2021-11-17 17:18:50.957851+00:00,"{""currentPrice"": 0, ""priceIndex"": 19, ""secs_since_round_starts"": 38}",False,0.05,False,0.0,10.0,30.0,0,19,38,2.0,1,0,0,0,1,0,Female,57.0,MBA,6,6,Other,0.0,0.0,0.0,Less than once a month,Monthly,Stocks,Do not know,GB,38,0.0
30,pd1jf59e,tcbozsj9,6,Trade_ends,2021-11-17 17:19:21.241181+00:00,"{""currentPrice"": 0, ""priceIndex"": 11, ""secs_since_round_starts"": 22}",True,0.05,False,0.0,10.0,30.0,0,11,22,2.0,1,0,0,0,1,0,Female,57.0,MBA,6,6,Other,0.0,0.0,0.0,Less than once a month,Monthly,Stocks,Do not know,GB,22,0.0
31,s1t7vxc5,tcbozsj9,4,Trade_ends,2021-11-17 17:19:32.915820+00:00,"{""currentPrice"": 27, ""priceIndex"": 19, ""secs_since_round_starts"": 41}",False,0.02,False,27.0,10.0,30.0,27,19,41,2.0,0,1,0,0,1,0,Female,46.0,master,24,10,Other,0.0,1.0,0.0,Weekly,Daily,Stocks,No,GB,1000,1000.0
32,s1t7vxc5,tcbozsj9,5,Trade_ends,2021-11-17 17:19:51.960323+00:00,"{""currentPrice"": 15, ""priceIndex"": 5, ""secs_since_round_starts"": 13}",False,0.05,False,15.0,10.0,30.0,15,5,13,2.0,0,1,0,0,1,0,Female,46.0,master,24,10,Other,0.0,1.0,0.0,Weekly,Daily,Stocks,No,GB,1000,1000.0
33,s1t7vxc5,tcbozsj9,6,Trade_ends,2021-11-17 17:20:05.426388+00:00,"{""currentPrice"": 0, ""priceIndex"": 4, ""secs_since_round_starts"": 8}",True,0.05,False,0.0,10.0,30.0,0,4,8,2.0,1,0,0,0,1,0,Female,46.0,master,24,10,Other,0.0,1.0,0.0,Weekly,Daily,Stocks,No,GB,8,0.0
34,pd1jf59e,tcbozsj9,7,Trade_ends,2021-11-17 17:20:21.981464+00:00,"{""currentPrice"": 35, ""priceIndex"": 24, ""secs_since_round_starts"": 51}",True,0.02,False,35.0,10.0,30.0,35,24,51,2.0,0,1,0,0,1,0,Female,57.0,MBA,6,6,Other,0.0,0.0,0.0,Less than once a month,Monthly,Stocks,Do not know,GB,1000,1000.0
35,s1t7vxc5,tcbozsj9,7,Trade_ends,2021-11-17 17:20:39.694301+00:00,"{""currentPrice"": 0, ""priceIndex"": 13, ""secs_since_round_starts"": 26}",True,0.02,False,0.0,10.0,30.0,0,13,26,2.0,1,0,0,0,1,0,Female,46.0,master,24,10,Other,0.0,1.0,0.0,Weekly,Daily,Stocks,No,GB,26,0.0
36,s1t7vxc5,tcbozsj9,8,Trade_ends,2021-11-17 17:20:56.577113+00:00,"{""currentPrice"": 13, ""priceIndex"": 3, ""secs_since_round_starts"": 10}",True,0.05,False,13.0,10.0,30.0,13,3,10,2.0,0,1,0,0,1,0,Female,46.0,master,24,10,Other,0.0,1.0,0.0,Weekly,Daily,Stocks,No,GB,1000,1000.0
37,pd1jf59e,tcbozsj9,8,Trade_ends,2021-11-17 17:21:01.317683+00:00,"{""currentPrice"": 0, ""priceIndex"": 15, ""secs_since_round_starts"": 30}",True,0.05,False,0.0,10.0,30.0,0,15,30,2.0,1,0,0,0,1,0,Female,57.0,MBA,6,6,Other,0.0,0.0,0.0,Less than once a month,Monthly,Stocks,Do not know,GB,30,0.0
38,pd1jf59e,tcbozsj9,9,Trade_ends,2021-11-17 17:21:29.692879+00:00,"{""currentPrice"": 0, ""priceIndex"": 10, ""secs_since_round_starts"": 20}",True,0.02,False,0.0,10.0,30.0,0,10,20,2.0,1,0,0,0,1,0,Female,57.0,MBA,6,6,Other,0.0,0.0,0.0,Less than once a month,Monthly,Stocks,Do not know,GB,20,0.0
39,s1t7vxc5,tcbozsj9,9,Trade_ends,2021-11-17 17:21:33.605358+00:00,"{""currentPrice"": 22, ""priceIndex"": 14, ""secs_since_round_starts"": 30}",True,0.02,False,22.0,10.0,30.0,22,14,30,2.0,0,1,0,0,1,0,Female,46.0,master,24,10,Other,0.0,1.0,0.0,Weekly,Daily,Stocks,No,GB,1000,1000.0
40,x6h6vcwo,xm39f2ij,2,Trade_ends,2021-11-17 17:22:21.443648+00:00,"{""currentPrice"": 42, ""priceIndex"": 30, ""secs_since_round_starts"": 60}",False,0.02,False,42.0,10.0,30.0,42,30,60,2.0,0,0,1,0,1,0,Female,31.0,undergraduate: 2nd year,2,2,Other,0.0,1.0,0.0,Less than once a month,Less than once a month,Stocks,No,GB,60,1000.0
41,x6h6vcwo,xm39f2ij,3,Trade_ends,2021-11-17 17:22:36.850273+00:00,"{""currentPrice"": 0, ""priceIndex"": 4, ""secs_since_round_starts"": 8}",False,0.05,False,0.0,10.0,30.0,0,4,8,2.0,1,0,0,0,1,0,Female,31.0,undergraduate: 2nd year,2,2,Other,0.0,1.0,0.0,Less than once a month,Less than once a month,Stocks,No,GB,8,0.0
42,gspyeh5h,tcbozsj9,2,Trade_ends,2021-11-17 17:23:31.894412+00:00,"{""currentPrice"": 22, ""priceIndex"": 14, ""secs_since_round_starts"": 29}",True,0.02,False,22.0,10.0,30.0,22,14,29,2.0,0,1,0,0,1,1,Male,40.0,master,31,7,Other Management,1.0,1.0,1.0,Monthly,Daily,Stocks,No,ES,1000,1000.0
43,gspyeh5h,tcbozsj9,3,Trade_ends,2021-11-17 17:23:40.471479+00:00,"{""currentPrice"": 0, ""priceIndex"": 2, ""secs_since_round_starts"": 4}",True,0.05,False,0.0,10.0,30.0,0,2,4,2.0,1,0,0,0,1,1,Male,40.0,master,31,7,Other Management,1.0,1.0,1.0,Monthly,Daily,Stocks,No,ES,4,0.0
44,x6h6vcwo,xm39f2ij,4,Trade_ends,2021-11-17 17:23:43.861933+00:00,"{""currentPrice"": 43, ""priceIndex"": 30, ""secs_since_round_starts"": 60}",False,0.02,False,43.0,10.0,30.0,43,30,60,2.0,0,0,1,0,1,0,Female,31.0,undergraduate: 2nd year,2,2,Other,0.0,1.0,0.0,Less than once a month,Less than once a month,Stocks,No,GB,60,1000.0
45,x6h6vcwo,xm39f2ij,5,Trade_ends,2021-11-17 17:23:54.557870+00:00,"{""currentPrice"": 0, ""priceIndex"": 2, ""secs_since_round_starts"": 4}",False,0.05,False,0.0,10.0,30.0,0,2,4,2.0,1,0,0,0,1,0,Female,31.0,undergraduate: 2nd year,2,2,Other,0.0,1.0,0.0,Less than once a month,Less than once a month,Stocks,No,GB,4,0.0
46,sjpagngy,tcbozsj9,2,Trade_ends,2021-11-17 17:24:10.009951+00:00,"{""currentPrice"": 0, ""priceIndex"": 8, ""secs_since_round_starts"": 32}",True,0.02,False,0.0,10.0,30.0,0,8,32,2.0,1,0,0,1,1,1,Male,50.0,master,25,6,Other,0.0,0.0,0.0,Less than once a month,Weekly,Stocks,No,GB,32,0.0
47,x6h6vcwo,xm39f2ij,6,Trade_ends,2021-11-17 17:24:12.859689+00:00,"{""currentPrice"": 14, ""priceIndex"": 3, ""secs_since_round_starts"": 10}",True,0.05,False,14.0,10.0,30.0,14,3,10,2.0,0,1,0,0,1,0,Female,31.0,undergraduate: 2nd year,2,2,Other,0.0,1.0,0.0,Less than once a month,Less than once a month,Stocks,No,GB,1000,1000.0
48,gspyeh5h,tcbozsj9,4,Trade_ends,2021-11-17 17:24:33.645602+00:00,"{""currentPrice"": 31, ""priceIndex"": 22, ""secs_since_round_starts"": 47}",True,0.02,False,31.0,10.0,30.0,31,22,47,2.0,0,1,0,0,1,1,Male,40.0,master,31,7,Other Management,1.0,1.0,1.0,Monthly,Daily,Stocks,No,ES,1000,1000.0
49,sjpagngy,tcbozsj9,3,Trade_ends,2021-11-17 17:24:34.877931+00:00,"{""currentPrice"": 11, ""priceIndex"": 4, ""secs_since_round_starts"": 11}",True,0.05,False,11.0,10.0,30.0,11,4,11,2.0,0,1,0,0,1,1,Male,50.0,master,25,6,Other,0.0,0.0,0.0,Less than once a month,Weekly,Stocks,No,GB,1000,1000.0
50,gspyeh5h,tcbozsj9,5,Trade_ends,2021-11-17 17:24:44.949579+00:00,"{""currentPrice"": 12, ""priceIndex"": 2, ""secs_since_round_starts"": 6}",True,0.05,False,12.0,10.0,30.0,12,2,6,2.0,0,1,0,0,1,1,Male,40.0,master,31,7,Other Management,1.0,1.0,1.0,Monthly,Daily,Stocks,No,ES,1000,1000.0
51,x6h6vcwo,xm39f2ij,7,Trade_ends,2021-11-17 17:24:54.494370+00:00,"{""currentPrice"": 21, ""priceIndex"": 16, ""secs_since_round_starts"": 35}",True,0.02,False,21.0,10.0,30.0,21,16,35,2.0,0,1,0,0,1,0,Female,31.0,undergraduate: 2nd year,2,2,Other,0.0,1.0,0.0,Less than once a month,Less than once a month,Stocks,No,GB,1000,1000.0
52,sjpagngy,tcbozsj9,4,Trade_ends,2021-11-17 17:24:58.676106+00:00,"{""currentPrice"": 15, ""priceIndex"": 7, ""secs_since_round_starts"": 17}",True,0.02,False,15.0,10.0,30.0,15,7,17,2.0,0,1,0,0,1,1,Male,50.0,master,25,6,Other,0.0,0.0,0.0,Less than once a month,Weekly,Stocks,No,GB,1000,1000.0
53,gspyeh5h,tcbozsj9,6,Trade_ends,2021-11-17 17:24:59.793472+00:00,"{""currentPrice"": 12, ""priceIndex"": 4, ""secs_since_round_starts"": 10}",False,0.05,False,12.0,10.0,30.0,12,4,10,2.0,0,1,0,0,1,1,Male,40.0,master,31,7,Other Management,1.0,1.0,1.0,Monthly,Daily,Stocks,No,ES,1000,1000.0
54,t7ukc19m,tcbozsj9,2,Trade_ends,2021-11-17 17:25:02.718162+00:00,"{""currentPrice"": 13, ""priceIndex"": 4, ""secs_since_round_starts"": 10}",False,0.02,False,13.0,10.0,30.0,13,4,10,2.0,0,1,0,0,1,0,Female,60.0,master,7,7,Other,0.0,1.0,0.0,Less than once a month,Weekly,Stocks,No,GB,1000,1000.0
55,hnet66cj,xm39f2ij,2,Trade_ends,2021-11-17 17:25:03.049299+00:00,"{""currentPrice"": 0, ""priceIndex"": 9, ""secs_since_round_starts"": 18}",False,0.02,False,0.0,10.0,30.0,0,9,18,2.0,1,0,0,0,1,0,Female,26.0,high-school graduate,6,6,Other,0.0,0.0,0.0,Less than once a month,Less than once a month,Cryptocurrencies,Do not know,GB,18,0.0
56,x6h6vcwo,xm39f2ij,8,Trade_ends,2021-11-17 17:25:07.460130+00:00,"{""currentPrice"": 11, ""priceIndex"": 2, ""secs_since_round_starts"": 7}",True,0.05,False,11.0,10.0,30.0,11,2,7,2.0,0,1,0,0,1,0,Female,31.0,undergraduate: 2nd year,2,2,Other,0.0,1.0,0.0,Less than once a month,Less than once a month,Stocks,No,GB,1000,1000.0
57,sjpagngy,tcbozsj9,5,Trade_ends,2021-11-17 17:25:12.447199+00:00,"{""currentPrice"": 0, ""priceIndex"": 4, ""secs_since_round_starts"": 8}",True,0.05,False,0.0,10.0,30.0,0,4,8,2.0,1,0,0,0,1,1,Male,50.0,master,25,6,Other,0.0,0.0,0.0,Less than once a month,Weekly,Stocks,No,GB,8,0.0
58,t7ukc19m,tcbozsj9,3,Trade_ends,2021-11-17 17:25:22.562942+00:00,"{""currentPrice"": 17, ""priceIndex"": 6, ""secs_since_round_starts"": 14}",False,0.05,False,17.0,10.0,30.0,17,6,14,2.0,0,1,0,0,1,0,Female,60.0,master,7,7,Other,0.0,1.0,0.0,Less than once a month,Weekly,Stocks,No,GB,1000,1000.0
59,hnet66cj,xm39f2ij,3,Trade_ends,2021-11-17 17:25:22.977586+00:00,"{""currentPrice"": 14, ""priceIndex"": 6, ""secs_since_round_starts"": 14}",False,0.05,False,14.0,10.0,30.0,14,6,14,2.0,0,1,0,0,1,0,Female,26.0,high-school graduate,6,6,Other,0.0,0.0,0.0,Less than once a month,Less than once a month,Cryptocurrencies,Do not know,GB,1000,1000.0
60,gspyeh5h,tcbozsj9,7,Trade_ends,2021-11-17 17:25:24.471122+00:00,"{""currentPrice"": 24, ""priceIndex"": 10, ""secs_since_round_starts"": 21}",False,0.02,False,24.0,10.0,30.0,24,10,21,2.0,0,1,0,0,1,1,Male,40.0,master,31,7,Other Management,1.0,1.0,1.0,Monthly,Daily,Stocks,No,ES,1000,1000.0
61,sjpagngy,tcbozsj9,6,Trade_ends,2021-11-17 17:25:28.285900+00:00,"{""currentPrice"": 14, ""priceIndex"": 3, ""secs_since_round_starts"": 8}",False,0.05,False,14.0,10.0,30.0,14,3,8,2.0,0,1,0,0,1,1,Male,50.0,master,25,6,Other,0.0,0.0,0.0,Less than once a month,Weekly,Stocks,No,GB,1000,1000.0
62,gspyeh5h,tcbozsj9,8,Trade_ends,2021-11-17 17:25:35.012618+00:00,"{""currentPrice"": 12, ""priceIndex"": 3, ""secs_since_round_starts"": 7}",False,0.05,False,12.0,10.0,30.0,12,3,7,2.0,0,1,0,0,1,1,Male,40.0,master,31,7,Other Management,1.0,1.0,1.0,Monthly,Daily,Stocks,No,ES,1000,1000.0
63,gspyeh5h,tcbozsj9,9,Trade_ends,2021-11-17 17:25:42.731753+00:00,"{""currentPrice"": 0, ""priceIndex"": 2, ""secs_since_round_starts"": 4}",False,0.02,False,0.0,10.0,30.0,0,2,4,2.0,1,0,0,0,1,1,Male,40.0,master,31,7,Other Management,1.0,1.0,1.0,Monthly,Daily,Stocks,No,ES,4,0.0
64,hnet66cj,xm39f2ij,4,Trade_ends,2021-11-17 17:25:42.863104+00:00,"{""currentPrice"": 15, ""priceIndex"": 7, ""secs_since_round_starts"": 16}",False,0.02,False,15.0,10.0,30.0,15,7,16,2.0,0,1,0,0,1,0,Female,26.0,high-school graduate,6,6,Other,0.0,0.0,0.0,Less than once a month,Less than once a month,Cryptocurrencies,Do not know,GB,1000,1000.0
65,sjpagngy,tcbozsj9,7,Trade_ends,2021-11-17 17:25:47.482220+00:00,"{""currentPrice"": 16, ""priceIndex"": 5, ""secs_since_round_starts"": 13}",False,0.02,False,16.0,10.0,30.0,16,5,13,2.0,0,1,0,0,1,1,Male,50.0,master,25,6,Other,0.0,0.0,0.0,Less than once a month,Weekly,Stocks,No,GB,1000,1000.0
66,t7ukc19m,tcbozsj9,4,Trade_ends,2021-11-17 17:25:48.303708+00:00,"{""currentPrice"": 0, ""priceIndex"": 10, ""secs_since_round_starts"": 20}",False,0.02,False,0.0,10.0,30.0,0,10,20,2.0,1,0,0,0,1,0,Female,60.0,master,7,7,Other,0.0,1.0,0.0,Less than once a month,Weekly,Stocks,No,GB,20,0.0
67,sjpagngy,tcbozsj9,8,Trade_ends,2021-11-17 17:25:56.262205+00:00,"{""currentPrice"": 0, ""priceIndex"": 2, ""secs_since_round_starts"": 4}",False,0.05,False,0.0,10.0,30.0,0,2,4,2.0,1,0,0,0,1,1,Male,50.0,master,25,6,Other,0.0,0.0,0.0,Less than once a month,Weekly,Stocks,No,GB,4,0.0
68,hnet66cj,xm39f2ij,5,Trade_ends,2021-11-17 17:25:56.349832+00:00,"{""currentPrice"": 15, ""priceIndex"": 4, ""secs_since_round_starts"": 10}",False,0.05,False,15.0,10.0,30.0,15,4,10,2.0,0,1,0,0,1,0,Female,26.0,high-school graduate,6,6,Other,0.0,0.0,0.0,Less than once a month,Less than once a month,Cryptocurrencies,Do not know,GB,1000,1000.0
69,7ebksmn6,tcbozsj9,2,Trade_ends,2021-11-17 17:25:57.111426+00:00,"{""currentPrice"": 31, ""priceIndex"": 14, ""secs_since_round_starts"": 30}",False,0.02,False,31.0,10.0,30.0,31,14,30,2.0,0,1,0,0,1,0,Male,24.0,master,25,8,Other,0.0,1.0,1.0,Monthly,Weekly,Stocks,Do not know,GB,1000,1000.0
70,hnet66cj,xm39f2ij,6,Trade_ends,2021-11-17 17:26:09.772450+00:00,"{""currentPrice"": 16, ""priceIndex"": 4, ""secs_since_round_starts"": 10}",True,0.05,False,16.0,10.0,30.0,16,4,10,2.0,0,1,0,0,1,0,Female,26.0,high-school graduate,6,6,Other,0.0,0.0,0.0,Less than once a month,Less than once a month,Cryptocurrencies,Do not know,GB,1000,1000.0
71,t7ukc19m,tcbozsj9,5,Trade_ends,2021-11-17 17:26:11.369386+00:00,"{""currentPrice"": 18, ""priceIndex"": 7, ""secs_since_round_starts"": 16}",False,0.05,False,18.0,10.0,30.0,18,7,16,2.0,0,1,0,0,1,0,Female,60.0,master,7,7,Other,0.0,1.0,0.0,Less than once a month,Weekly,Stocks,No,GB,1000,1000.0
72,x6h6vcwo,xm39f2ij,9,Trade_ends,2021-11-17 17:26:13.877204+00:00,"{""currentPrice"": 38, ""priceIndex"": 30, ""secs_since_round_starts"": 60}",True,0.02,False,38.0,10.0,30.0,38,30,60,2.0,0,0,1,0,1,0,Female,31.0,undergraduate: 2nd year,2,2,Other,0.0,1.0,0.0,Less than once a month,Less than once a month,Stocks,No,GB,60,1000.0
73,6fd1vesp,xm39f2ij,2,Trade_ends,2021-11-17 17:26:16.818516+00:00,"{""currentPrice"": 25, ""priceIndex"": 12, ""secs_since_round_starts"": 28}",True,0.02,False,25.0,10.0,30.0,25,12,28,2.0,0,1,0,0,1,1,Male,59.0,high-school graduate,7,7,Other,0.0,0.0,0.0,Less than once a month,Less than once a month,Cryptocurrencies,No,GB,1000,1000.0
74,sjpagngy,tcbozsj9,9,Trade_ends,2021-11-17 17:26:25.270382+00:00,"{""currentPrice"": 19, ""priceIndex"": 7, ""secs_since_round_starts"": 21}",False,0.02,False,19.0,10.0,30.0,19,7,21,2.0,0,1,0,1,1,1,Male,50.0,master,25,6,Other,0.0,0.0,0.0,Less than once a month,Weekly,Stocks,No,GB,1000,1000.0
75,hnet66cj,xm39f2ij,7,Trade_ends,2021-11-17 17:26:28.795791+00:00,"{""currentPrice"": 15, ""priceIndex"": 7, ""secs_since_round_starts"": 15}",True,0.02,False,15.0,10.0,30.0,15,7,15,2.0,0,1,0,0,1,0,Female,26.0,high-school graduate,6,6,Other,0.0,0.0,0.0,Less than once a month,Less than once a month,Cryptocurrencies,Do not know,GB,1000,1000.0
76,6fd1vesp,xm39f2ij,3,Trade_ends,2021-11-17 17:26:39.575228+00:00,"{""currentPrice"": 19, ""priceIndex"": 7, ""secs_since_round_starts"": 16}",True,0.05,False,19.0,10.0,30.0,19,7,16,2.0,0,1,0,0,1,1,Male,59.0,high-school graduate,7,7,Other,0.0,0.0,0.0,Less than once a month,Less than once a month,Cryptocurrencies,No,GB,1000,1000.0
77,7ebksmn6,tcbozsj9,3,Trade_ends,2021-11-17 17:26:42.378966+00:00,"{""currentPrice"": 0, ""priceIndex"": 15, ""secs_since_round_starts"": 30}",False,0.05,False,0.0,10.0,30.0,0,15,30,2.0,1,0,0,0,1,0,Male,24.0,master,25,8,Other,0.0,1.0,1.0,Monthly,Weekly,Stocks,Do not know,GB,30,0.0
78,t7ukc19m,tcbozsj9,6,Trade_ends,2021-11-17 17:26:43.185323+00:00,"{""currentPrice"": 19, ""priceIndex"": 12, ""secs_since_round_starts"": 26}",True,0.05,False,19.0,10.0,30.0,19,12,26,2.0,0,1,0,0,1,0,Female,60.0,master,7,7,Other,0.0,1.0,0.0,Less than once a month,Weekly,Stocks,No,GB,1000,1000.0
79,hnet66cj,xm39f2ij,8,Trade_ends,2021-11-17 17:26:48.591864+00:00,"{""currentPrice"": 17, ""priceIndex"": 7, ""secs_since_round_starts"": 15}",True,0.05,False,17.0,10.0,30.0,17,7,15,2.0,0,1,0,0,1,0,Female,26.0,high-school graduate,6,6,Other,0.0,0.0,0.0,Less than once a month,Less than once a month,Cryptocurrencies,Do not know,GB,1000,1000.0
80,hnet66cj,xm39f2ij,9,Trade_ends,2021-11-17 17:27:09.313019+00:00,"{""currentPrice"": 16, ""priceIndex"": 8, ""secs_since_round_starts"": 17}",True,0.02,False,16.0,10.0,30.0,16,8,17,2.0,0,1,0,0,1,0,Female,26.0,high-school graduate,6,6,Other,0.0,0.0,0.0,Less than once a month,Less than once a month,Cryptocurrencies,Do not know,GB,1000,1000.0
81,t7ukc19m,tcbozsj9,7,Trade_ends,2021-11-17 17:27:15.589916+00:00,"{""currentPrice"": 19, ""priceIndex"": 12, ""secs_since_round_starts"": 26}",True,0.02,False,19.0,10.0,30.0,19,12,26,2.0,0,1,0,0,1,0,Female,60.0,master,7,7,Other,0.0,1.0,0.0,Less than once a month,Weekly,Stocks,No,GB,1000,1000.0
82,6fd1vesp,xm39f2ij,4,Trade_ends,2021-11-17 17:27:23.958317+00:00,"{""currentPrice"": 33, ""priceIndex"": 18, ""secs_since_round_starts"": 39}",True,0.02,False,33.0,10.0,30.0,33,18,39,2.0,0,1,0,0,1,1,Male,59.0,high-school graduate,7,7,Other,0.0,0.0,0.0,Less than once a month,Less than once a month,Cryptocurrencies,No,GB,1000,1000.0
83,t7ukc19m,tcbozsj9,8,Trade_ends,2021-11-17 17:27:29.334480+00:00,"{""currentPrice"": 0, ""priceIndex"": 4, ""secs_since_round_starts"": 8}",True,0.05,False,0.0,10.0,30.0,0,4,8,2.0,1,0,0,0,1,0,Female,60.0,master,7,7,Other,0.0,1.0,0.0,Less than once a month,Weekly,Stocks,No,GB,8,0.0
84,6fd1vesp,xm39f2ij,5,Trade_ends,2021-11-17 17:27:37.275168+00:00,"{""currentPrice"": 0, ""priceIndex"": 4, ""secs_since_round_starts"": 8}",True,0.05,False,0.0,10.0,30.0,0,4,8,2.0,1,0,0,0,1,1,Male,59.0,high-school graduate,7,7,Other,0.0,0.0,0.0,Less than once a month,Less than once a month,Cryptocurrencies,No,GB,8,0.0
85,n2yva9t6,xm39f2ij,2,Trade_ends,2021-11-17 17:27:44.886722+00:00,"{""currentPrice"": 0, ""priceIndex"": 12, ""secs_since_round_starts"": 24}",False,0.02,False,0.0,10.0,30.0,0,12,24,2.0,1,0,0,0,1,0,Male,27.0,undergraduate: 4th year,7,7,Other,0.0,1.0,0.0,Less than once a month,Monthly,Stocks,No,CA,24,0.0
86,lzac8r5j,tcbozsj9,2,Trade_ends,2021-11-17 17:27:48.192723+00:00,"{""currentPrice"": 19, ""priceIndex"": 11, ""secs_since_round_starts"": 24}",False,0.02,False,19.0,10.0,30.0,19,11,24,2.0,0,1,0,0,1,0,Male,32.0,PhD,16,4,Other,0.0,1.0,1.0,Monthly,Less than once a month,Bonds,No,GB,1000,1000.0
87,t7ukc19m,tcbozsj9,9,Trade_ends,2021-11-17 17:27:53.362299+00:00,"{""currentPrice"": 0, ""priceIndex"": 9, ""secs_since_round_starts"": 18}",True,0.02,False,0.0,10.0,30.0,0,9,18,2.0,1,0,0,0,1,0,Female,60.0,master,7,7,Other,0.0,1.0,0.0,Less than once a month,Weekly,Stocks,No,GB,18,0.0
88,6fd1vesp,xm39f2ij,6,Trade_ends,2021-11-17 17:27:53.377391+00:00,"{""currentPrice"": 16, ""priceIndex"": 3, ""secs_since_round_starts"": 8}",False,0.05,False,16.0,10.0,30.0,16,3,8,2.0,0,1,0,0,1,1,Male,59.0,high-school graduate,7,7,Other,0.0,0.0,0.0,Less than once a month,Less than once a month,Cryptocurrencies,No,GB,1000,1000.0
89,7ebksmn6,tcbozsj9,4,Trade_ends,2021-11-17 17:27:53.521899+00:00,"{""currentPrice"": 46, ""priceIndex"": 30, ""secs_since_round_starts"": 60}",False,0.02,False,46.0,10.0,30.0,46,30,60,2.0,0,0,1,0,1,0,Male,24.0,master,25,8,Other,0.0,1.0,1.0,Monthly,Weekly,Stocks,Do not know,GB,60,1000.0
90,lzac8r5j,tcbozsj9,3,Trade_ends,2021-11-17 17:28:02.149774+00:00,"{""currentPrice"": 0, ""priceIndex"": 5, ""secs_since_round_starts"": 10}",False,0.05,False,0.0,10.0,30.0,0,5,10,2.0,1,0,0,0,1,0,Male,32.0,PhD,16,4,Other,0.0,1.0,1.0,Monthly,Less than once a month,Bonds,No,GB,10,0.0
91,lzac8r5j,tcbozsj9,4,Trade_ends,2021-11-17 17:28:14.301717+00:00,"{""currentPrice"": 11, ""priceIndex"": 3, ""secs_since_round_starts"": 8}",False,0.02,False,11.0,10.0,30.0,11,3,8,2.0,0,1,0,0,1,0,Male,32.0,PhD,16,4,Other,0.0,1.0,1.0,Monthly,Less than once a month,Bonds,No,GB,1000,1000.0
92,n2yva9t6,xm39f2ij,3,Trade_ends,2021-11-17 17:28:15.897249+00:00,"{""currentPrice"": 23, ""priceIndex"": 12, ""secs_since_round_starts"": 26}",False,0.05,False,23.0,10.0,30.0,23,12,26,2.0,0,1,0,0,1,0,Male,27.0,undergraduate: 4th year,7,7,Other,0.0,1.0,0.0,Less than once a month,Monthly,Stocks,No,CA,1000,1000.0
93,7ebksmn6,tcbozsj9,5,Trade_ends,2021-11-17 17:28:18.041020+00:00,"{""currentPrice"": 20, ""priceIndex"": 6, ""secs_since_round_starts"": 14}",False,0.05,False,20.0,10.0,30.0,20,6,14,2.0,0,1,0,0,1,0,Male,24.0,master,25,8,Other,0.0,1.0,1.0,Monthly,Weekly,Stocks,Do not know,GB,1000,1000.0
94,6fd1vesp,xm39f2ij,7,Trade_ends,2021-11-17 17:28:18.800525+00:00,"{""currentPrice"": 17, ""priceIndex"": 9, ""secs_since_round_starts"": 20}",False,0.02,False,17.0,10.0,30.0,17,9,20,2.0,0,1,0,0,1,1,Male,59.0,high-school graduate,7,7,Other,0.0,0.0,0.0,Less than once a month,Less than once a month,Cryptocurrencies,No,GB,1000,1000.0
95,lzac8r5j,tcbozsj9,5,Trade_ends,2021-11-17 17:28:27.569430+00:00,"{""currentPrice"": 14, ""priceIndex"": 4, ""secs_since_round_starts"": 10}",False,0.05,False,14.0,10.0,30.0,14,4,10,2.0,0,1,0,0,1,0,Male,32.0,PhD,16,4,Other,0.0,1.0,1.0,Monthly,Less than once a month,Bonds,No,GB,1000,1000.0
96,7ebksmn6,tcbozsj9,6,Trade_ends,2021-11-17 17:28:29.918392+00:00,"{""currentPrice"": 0, ""priceIndex"": 3, ""secs_since_round_starts"": 6}",True,0.05,False,0.0,10.0,30.0,0,3,6,2.0,1,0,0,0,1,0,Male,24.0,master,25,8,Other,0.0,1.0,1.0,Monthly,Weekly,Stocks,Do not know,GB,6,0.0
97,6fd1vesp,xm39f2ij,8,Trade_ends,2021-11-17 17:28:34.369979+00:00,"{""currentPrice"": 16, ""priceIndex"": 4, ""secs_since_round_starts"": 10}",False,0.05,False,16.0,10.0,30.0,16,4,10,2.0,0,1,0,0,1,1,Male,59.0,high-school graduate,7,7,Other,0.0,0.0,0.0,Less than once a month,Less than once a month,Cryptocurrencies,No,GB,1000,1000.0
98,lzac8r5j,tcbozsj9,6,Trade_ends,2021-11-17 17:28:42.400108+00:00,"{""currentPrice"": 12, ""priceIndex"": 4, ""secs_since_round_starts"": 11}",True,0.05,False,12.0,10.0,30.0,12,4,11,2.0,0,1,0,0,1,0,Male,32.0,PhD,16,4,Other,0.0,1.0,1.0,Monthly,Less than once a month,Bonds,No,GB,1000,1000.0
99,6fd1vesp,xm39f2ij,9,Trade_ends,2021-11-17 17:28:42.658448+00:00,"{""currentPrice"": 0, ""priceIndex"": 2, ""secs_since_round_starts"": 4}",False,0.02,False,0.0,10.0,30.0,0,2,4,2.0,1,0,0,0,1,1,Male,59.0,high-school graduate,7,7,Other,0.0,0.0,0.0,Less than once a month,Less than once a month,Cryptocurrencies,No,GB,4,0.0
100,lzac8r5j,tcbozsj9,7,Trade_ends,2021-11-17 17:28:51.551223+00:00,"{""currentPrice"": 12, ""priceIndex"": 2, ""secs_since_round_starts"": 6}",True,0.02,False,12.0,10.0,30.0,12,2,6,2.0,0,1,0,0,1,0,Male,32.0,PhD,16,4,Other,0.0,1.0,1.0,Monthly,Less than once a month,Bonds,No,GB,1000,1000.0
101,n2yva9t6,xm39f2ij,4,Trade_ends,2021-11-17 17:28:54.976845+00:00,"{""currentPrice"": 27, ""priceIndex"": 17, ""secs_since_round_starts"": 36}",False,0.02,False,27.0,10.0,30.0,27,17,36,2.0,0,1,0,0,1,0,Male,27.0,undergraduate: 4th year,7,7,Other,0.0,1.0,0.0,Less than once a month,Monthly,Stocks,No,CA,1000,1000.0
102,qn2tqknk,xm39f2ij,2,Trade_ends,2021-11-17 17:28:56.334814+00:00,"{""currentPrice"": 38, ""priceIndex"": 30, ""secs_since_round_starts"": 60}",True,0.02,False,38.0,10.0,30.0,38,30,60,2.0,0,0,1,0,1,1,Female,42.0,undergraduate: 2nd year,49,5,Other,0.0,1.0,1.0,Weekly,Daily,Stocks,No,US,60,1000.0
103,lzac8r5j,tcbozsj9,8,Trade_ends,2021-11-17 17:29:07.229908+00:00,"{""currentPrice"": 0, ""priceIndex"": 4, ""secs_since_round_starts"": 12}",True,0.05,False,0.0,10.0,30.0,0,4,12,2.0,1,0,0,1,1,0,Male,32.0,PhD,16,4,Other,0.0,1.0,1.0,Monthly,Less than once a month,Bonds,No,GB,12,0.0
104,7ebksmn6,tcbozsj9,7,Trade_ends,2021-11-17 17:29:24.723823+00:00,"{""currentPrice"": 27, ""priceIndex"": 17, ""secs_since_round_starts"": 36}",True,0.02,False,27.0,10.0,30.0,27,17,36,2.0,0,1,0,0,1,0,Male,24.0,master,25,8,Other,0.0,1.0,1.0,Monthly,Weekly,Stocks,Do not know,GB,1000,1000.0
105,lzac8r5j,tcbozsj9,9,Trade_ends,2021-11-17 17:29:26.815103+00:00,"{""currentPrice"": 20, ""priceIndex"": 7, ""secs_since_round_starts"": 16}",True,0.02,False,20.0,10.0,30.0,20,7,16,2.0,0,1,0,0,1,0,Male,32.0,PhD,16,4,Other,0.0,1.0,1.0,Monthly,Less than once a month,Bonds,No,GB,1000,1000.0
106,n2yva9t6,xm39f2ij,5,Trade_ends,2021-11-17 17:29:27.613998+00:00,"{""currentPrice"": 19, ""priceIndex"": 13, ""secs_since_round_starts"": 29}",False,0.05,False,19.0,10.0,30.0,19,13,29,2.0,0,1,0,1,1,0,Male,27.0,undergraduate: 4th year,7,7,Other,0.0,1.0,0.0,Less than once a month,Monthly,Stocks,No,CA,1000,1000.0
107,qn2tqknk,xm39f2ij,3,Trade_ends,2021-11-17 17:29:32.705942+00:00,"{""currentPrice"": 0, ""priceIndex"": 13, ""secs_since_round_starts"": 26}",True,0.05,False,0.0,10.0,30.0,0,13,26,2.0,1,0,0,0,1,1,Female,42.0,undergraduate: 2nd year,49,5,Other,0.0,1.0,1.0,Weekly,Daily,Stocks,No,US,26,0.0
108,ukijph7d,xm39f2ij,2,Trade_ends,2021-11-17 17:29:44.010172+00:00,"{""currentPrice"": 0, ""priceIndex"": 13, ""secs_since_round_starts"": 26}",True,0.02,False,0.0,10.0,30.0,0,13,26,2.0,1,0,0,0,1,1,Male,26.0,undergraduate: 2nd year,8,8,Other,0.0,1.0,1.0,Less than once a month,Weekly,Stocks,No,GB,26,0.0
109,7ebksmn6,tcbozsj9,8,Trade_ends,2021-11-17 17:29:47.846064+00:00,"{""currentPrice"": 17, ""priceIndex"": 8, ""secs_since_round_starts"": 18}",True,0.05,False,17.0,10.0,30.0,17,8,18,2.0,0,1,0,0,1,0,Male,24.0,master,25,8,Other,0.0,1.0,1.0,Monthly,Weekly,Stocks,Do not know,GB,1000,1000.0
110,7ebksmn6,tcbozsj9,9,Trade_ends,2021-11-17 17:30:01.056781+00:00,"{""currentPrice"": 0, ""priceIndex"": 4, ""secs_since_round_starts"": 8}",True,0.02,False,0.0,10.0,30.0,0,4,8,2.0,1,0,0,0,1,0,Male,24.0,master,25,8,Other,0.0,1.0,1.0,Monthly,Weekly,Stocks,Do not know,GB,8,0.0
111,ukijph7d,xm39f2ij,3,Trade_ends,2021-11-17 17:30:02.647833+00:00,"{""currentPrice"": 0, ""priceIndex"": 6, ""secs_since_round_starts"": 12}",True,0.05,False,0.0,10.0,30.0,0,6,12,2.0,1,0,0,0,1,1,Male,26.0,undergraduate: 2nd year,8,8,Other,0.0,1.0,1.0,Less than once a month,Weekly,Stocks,No,GB,12,0.0
112,n2yva9t6,xm39f2ij,6,Trade_ends,2021-11-17 17:30:13.167994+00:00,"{""currentPrice"": 25, ""priceIndex"": 14, ""secs_since_round_starts"": 42}",True,0.05,False,25.0,10.0,30.0,25,14,42,2.0,0,1,0,2,1,0,Male,27.0,undergraduate: 4th year,7,7,Other,0.0,1.0,0.0,Less than once a month,Monthly,Stocks,No,CA,1000,1000.0
113,fckp7nk6,xm39f2ij,2,Trade_ends,2021-11-17 17:30:17.283843+00:00,"{""currentPrice"": 0, ""priceIndex"": 16, ""secs_since_round_starts"": 32}",False,0.02,False,0.0,10.0,30.0,0,16,32,2.0,1,0,0,0,1,0,Male,34.0,undergraduate: 4th year,22,6,Other,0.0,1.0,1.0,Less than once a month,Less than once a month,Stocks,No,CA,32,0.0
114,5rlkxybf,tcbozsj9,2,Trade_ends,2021-11-17 17:30:34.689707+00:00,"{""currentPrice"": 18, ""priceIndex"": 6, ""secs_since_round_starts"": 13}",False,0.02,False,18.0,10.0,30.0,18,6,13,2.0,0,1,0,0,1,0,Female,53.0,master,23,5,Other,0.0,0.0,0.0,Less than once a month,Less than once a month,Stocks,No,GB,1000,1000.0
115,fckp7nk6,xm39f2ij,3,Trade_ends,2021-11-17 17:30:42.522840+00:00,"{""currentPrice"": 18, ""priceIndex"": 7, ""secs_since_round_starts"": 18}",False,0.05,False,18.0,10.0,30.0,18,7,18,2.0,0,1,0,0,1,0,Male,34.0,undergraduate: 4th year,22,6,Other,0.0,1.0,1.0,Less than once a month,Less than once a month,Stocks,No,CA,1000,1000.0
116,qn2tqknk,xm39f2ij,4,Trade_ends,2021-11-17 17:30:42.751439+00:00,"{""currentPrice"": 37, ""priceIndex"": 30, ""secs_since_round_starts"": 60}",True,0.02,False,37.0,10.0,30.0,37,30,60,2.0,0,0,1,0,1,1,Female,42.0,undergraduate: 2nd year,49,5,Other,0.0,1.0,1.0,Weekly,Daily,Stocks,No,US,60,1000.0
117,3q7w2q92,xm39f2ij,2,Trade_ends,2021-11-17 17:30:46.184648+00:00,"{""currentPrice"": 13, ""priceIndex"": 3, ""secs_since_round_starts"": 8}",True,0.02,False,13.0,10.0,30.0,13,3,8,2.0,0,1,0,0,1,1,Female,37.0,undergraduate: 4th year,25,10,Other,0.0,1.0,1.0,Weekly,Multiple times a day,Stocks,No,LV,1000,1000.0
118,lp1ktm6e,tcbozsj9,2,Trade_ends,2021-11-17 17:30:53.155255+00:00,"{""currentPrice"": 23, ""priceIndex"": 14, ""secs_since_round_starts"": 30}",False,0.02,False,23.0,10.0,30.0,23,14,30,2.0,0,1,0,0,1,0,Male,34.0,master,30,7,Other,0.0,0.0,0.0,Less than once a month,Less than once a month,Cryptocurrencies,No,GB,1000,1000.0
119,qn2tqknk,xm39f2ij,5,Trade_ends,2021-11-17 17:30:53.481677+00:00,"{""currentPrice"": 0, ""priceIndex"": 2, ""secs_since_round_starts"": 4}",True,0.05,False,0.0,10.0,30.0,0,2,4,2.0,1,0,0,0,1,1,Female,42.0,undergraduate: 2nd year,49,5,Other,0.0,1.0,1.0,Weekly,Daily,Stocks,No,US,4,0.0
120,n2yva9t6,xm39f2ij,7,Trade_ends,2021-11-17 17:30:54.127850+00:00,"{""currentPrice"": 31, ""priceIndex"": 17, ""secs_since_round_starts"": 37}",True,0.02,False,31.0,10.0,30.0,31,17,37,2.0,0,1,0,0,1,0,Male,27.0,undergraduate: 4th year,7,7,Other,0.0,1.0,0.0,Less than once a month,Monthly,Stocks,No,CA,1000,1000.0
121,ukijph7d,xm39f2ij,4,Trade_ends,2021-11-17 17:30:56.657018+00:00,"{""currentPrice"": 36, ""priceIndex"": 22, ""secs_since_round_starts"": 48}",True,0.02,False,36.0,10.0,30.0,36,22,48,2.0,0,1,0,0,1,1,Male,26.0,undergraduate: 2nd year,8,8,Other,0.0,1.0,1.0,Less than once a month,Weekly,Stocks,No,GB,1000,1000.0
122,3q7w2q92,xm39f2ij,3,Trade_ends,2021-11-17 17:31:00.003168+00:00,"{""currentPrice"": 13, ""priceIndex"": 2, ""secs_since_round_starts"": 7}",True,0.05,False,13.0,10.0,30.0,13,2,7,2.0,0,1,0,0,1,1,Female,37.0,undergraduate: 4th year,25,10,Other,0.0,1.0,1.0,Weekly,Multiple times a day,Stocks,No,LV,1000,1000.0
123,5rlkxybf,tcbozsj9,3,Trade_ends,2021-11-17 17:31:02.421908+00:00,"{""currentPrice"": 20, ""priceIndex"": 9, ""secs_since_round_starts"": 20}",False,0.05,False,20.0,10.0,30.0,20,9,20,2.0,0,1,0,0,1,0,Female,53.0,master,23,5,Other,0.0,0.0,0.0,Less than once a month,Less than once a month,Stocks,No,GB,1000,1000.0
124,3q7w2q92,xm39f2ij,4,Trade_ends,2021-11-17 17:31:14.784162+00:00,"{""currentPrice"": 14, ""priceIndex"": 4, ""secs_since_round_starts"": 10}",True,0.02,False,14.0,10.0,30.0,14,4,10,2.0,0,1,0,0,1,1,Female,37.0,undergraduate: 4th year,25,10,Other,0.0,1.0,1.0,Weekly,Multiple times a day,Stocks,No,LV,1000,1000.0
125,5rlkxybf,tcbozsj9,4,Trade_ends,2021-11-17 17:31:17.586679+00:00,"{""currentPrice"": 0, ""priceIndex"": 5, ""secs_since_round_starts"": 10}",False,0.02,False,0.0,10.0,30.0,0,5,10,2.0,1,0,0,0,1,0,Female,53.0,master,23,5,Other,0.0,0.0,0.0,Less than once a month,Less than once a month,Stocks,No,GB,10,0.0
126,fckp7nk6,xm39f2ij,4,Trade_ends,2021-11-17 17:31:18.605690+00:00,"{""currentPrice"": 29, ""priceIndex"": 15, ""secs_since_round_starts"": 32}",False,0.02,False,29.0,10.0,30.0,29,15,32,2.0,0,1,0,0,1,0,Male,34.0,undergraduate: 4th year,22,6,Other,0.0,1.0,1.0,Less than once a month,Less than once a month,Stocks,No,CA,1000,1000.0
127,3q7w2q92,xm39f2ij,5,Trade_ends,2021-11-17 17:31:20.677556+00:00,"{""currentPrice"": 0, ""priceIndex"": 1, ""secs_since_round_starts"": 2}",True,0.05,False,0.0,10.0,30.0,0,1,2,2.0,1,0,0,0,1,1,Female,37.0,undergraduate: 4th year,25,10,Other,0.0,1.0,1.0,Weekly,Multiple times a day,Stocks,No,LV,2,0.0
128,ukijph7d,xm39f2ij,5,Trade_ends,2021-11-17 17:31:21.867042+00:00,"{""currentPrice"": 18, ""priceIndex"": 8, ""secs_since_round_starts"": 18}",True,0.05,False,18.0,10.0,30.0,18,8,18,2.0,0,1,0,0,1,1,Male,26.0,undergraduate: 2nd year,8,8,Other,0.0,1.0,1.0,Less than once a month,Weekly,Stocks,No,GB,1000,1000.0
129,fjwkepy9,tcbozsj9,2,Trade_ends,2021-11-17 17:31:22.918403+00:00,"{""currentPrice"": 0, ""priceIndex"": 5, ""secs_since_round_starts"": 10}",True,0.02,False,0.0,10.0,30.0,0,5,10,2.0,1,0,0,0,1,1,Female,25.0,master,8,8,Other,0.0,1.0,1.0,Less than once a month,Weekly,Stocks,No,GB,10,0.0
130,2viqvnbq,tcbozsj9,2,Trade_ends,2021-11-17 17:31:23.620553+00:00,"{""currentPrice"": 0, ""priceIndex"": 7, ""secs_since_round_starts"": 14}",True,0.02,False,0.0,10.0,30.0,0,7,14,2.0,1,0,0,0,1,1,Female,45.0,PhD,8,8,Other,0.0,1.0,0.0,Less than once a month,Daily,Cryptocurrencies,No,GB,14,0.0
131,dkehpy51,tcbozsj9,2,Trade_ends,2021-11-17 17:31:29.478377+00:00,"{""currentPrice"": 24, ""priceIndex"": 14, ""secs_since_round_starts"": 31}",True,0.02,False,24.0,10.0,30.0,24,14,31,2.0,0,1,0,0,1,1,Female,50.0,PhD,24,7,Other,0.0,0.0,1.0,Less than once a month,Less than once a month,Stocks,No,GB,1000,1000.0
132,lp1ktm6e,tcbozsj9,3,Trade_ends,2021-11-17 17:31:29.715108+00:00,"{""currentPrice"": 21, ""priceIndex"": 12, ""secs_since_round_starts"": 31}",False,0.05,False,21.0,10.0,30.0,21,12,31,2.0,0,1,0,0,1,0,Male,34.0,master,30,7,Other,0.0,0.0,0.0,Less than once a month,Less than once a month,Cryptocurrencies,No,GB,1000,1000.0
133,fjwkepy9,tcbozsj9,3,Trade_ends,2021-11-17 17:31:32.204494+00:00,"{""currentPrice"": 0, ""priceIndex"": 1, ""secs_since_round_starts"": 2}",True,0.05,False,0.0,10.0,30.0,0,1,2,2.0,1,0,0,0,1,1,Female,25.0,master,8,8,Other,0.0,1.0,1.0,Less than once a month,Weekly,Stocks,No,GB,2,0.0
134,5rlkxybf,tcbozsj9,5,Trade_ends,2021-11-17 17:31:34.258524+00:00,"{""currentPrice"": 13, ""priceIndex"": 4, ""secs_since_round_starts"": 10}",False,0.05,False,13.0,10.0,30.0,13,4,10,2.0,0,1,0,0,1,0,Female,53.0,master,23,5,Other,0.0,0.0,0.0,Less than once a month,Less than once a month,Stocks,No,GB,1000,1000.0
135,3q7w2q92,xm39f2ij,6,Trade_ends,2021-11-17 17:31:36.357543+00:00,"{""currentPrice"": 13, ""priceIndex"": 3, ""secs_since_round_starts"": 9}",False,0.05,False,13.0,10.0,30.0,13,3,9,2.0,0,1,0,0,1,1,Female,37.0,undergraduate: 4th year,25,10,Other,0.0,1.0,1.0,Weekly,Multiple times a day,Stocks,No,LV,1000,1000.0
136,fckp7nk6,xm39f2ij,5,Trade_ends,2021-11-17 17:31:37.260231+00:00,"{""currentPrice"": 16, ""priceIndex"": 7, ""secs_since_round_starts"": 15}",False,0.05,False,16.0,10.0,30.0,16,7,15,2.0,0,1,0,0,1,0,Male,34.0,undergraduate: 4th year,22,6,Other,0.0,1.0,1.0,Less than once a month,Less than once a month,Stocks,No,CA,1000,1000.0
137,fjwkepy9,tcbozsj9,4,Trade_ends,2021-11-17 17:31:43.532075+00:00,"{""currentPrice"": 11, ""priceIndex"": 2, ""secs_since_round_starts"": 6}",True,0.02,False,11.0,10.0,30.0,11,2,6,2.0,0,1,0,0,1,1,Female,25.0,master,8,8,Other,0.0,1.0,1.0,Less than once a month,Weekly,Stocks,No,GB,1000,1000.0
138,fckp7nk6,xm39f2ij,6,Trade_ends,2021-11-17 17:31:43.904060+00:00,"{""currentPrice"": 0, ""priceIndex"": 2, ""secs_since_round_starts"": 4}",True,0.05,False,0.0,10.0,30.0,0,2,4,2.0,1,0,0,0,1,0,Male,34.0,undergraduate: 4th year,22,6,Other,0.0,1.0,1.0,Less than once a month,Less than once a month,Stocks,No,CA,4,0.0
139,ukijph7d,xm39f2ij,6,Trade_ends,2021-11-17 17:31:45.996728+00:00,"{""currentPrice"": 0, ""priceIndex"": 9, ""secs_since_round_starts"": 18}",False,0.05,False,0.0,10.0,30.0,0,9,18,2.0,1,0,0,0,1,1,Male,26.0,undergraduate: 2nd year,8,8,Other,0.0,1.0,1.0,Less than once a month,Weekly,Stocks,No,GB,18,0.0
140,dkehpy51,tcbozsj9,3,Trade_ends,2021-11-17 17:31:48.682623+00:00,"{""currentPrice"": 0, ""priceIndex"": 7, ""secs_since_round_starts"": 14}",True,0.05,False,0.0,10.0,30.0,0,7,14,2.0,1,0,0,0,1,1,Female,50.0,PhD,24,7,Other,0.0,0.0,1.0,Less than once a month,Less than once a month,Stocks,No,GB,14,0.0
141,lp1ktm6e,tcbozsj9,4,Trade_ends,2021-11-17 17:31:52.514887+00:00,"{""currentPrice"": 0, ""priceIndex"": 9, ""secs_since_round_starts"": 18}",False,0.02,False,0.0,10.0,30.0,0,9,18,2.0,1,0,0,0,1,0,Male,34.0,master,30,7,Other,0.0,0.0,0.0,Less than once a month,Less than once a month,Cryptocurrencies,No,GB,18,0.0
142,2viqvnbq,tcbozsj9,3,Trade_ends,2021-11-17 17:31:53.918182+00:00,"{""currentPrice"": 19, ""priceIndex"": 7, ""secs_since_round_starts"": 20}",True,0.05,False,19.0,10.0,30.0,19,7,20,2.0,0,1,0,0,1,1,Female,45.0,PhD,8,8,Other,0.0,1.0,0.0,Less than once a month,Daily,Cryptocurrencies,No,GB,1000,1000.0
143,fjwkepy9,tcbozsj9,5,Trade_ends,2021-11-17 17:31:57.481900+00:00,"{""currentPrice"": 0, ""priceIndex"": 5, ""secs_since_round_starts"": 10}",True,0.05,False,0.0,10.0,30.0,0,5,10,2.0,1,0,0,0,1,1,Female,25.0,master,8,8,Other,0.0,1.0,1.0,Less than once a month,Weekly,Stocks,No,GB,10,0.0
144,5rlkxybf,tcbozsj9,6,Trade_ends,2021-11-17 17:31:57.961862+00:00,"{""currentPrice"": 15, ""priceIndex"": 8, ""secs_since_round_starts"": 18}",True,0.05,False,15.0,10.0,30.0,15,8,18,2.0,0,1,0,0,1,0,Female,53.0,master,23,5,Other,0.0,0.0,0.0,Less than once a month,Less than once a month,Stocks,No,GB,1000,1000.0
145,3q7w2q92,xm39f2ij,7,Trade_ends,2021-11-17 17:31:59.200924+00:00,"{""currentPrice"": 15, ""priceIndex"": 7, ""secs_since_round_starts"": 16}",False,0.02,False,15.0,10.0,30.0,15,7,16,2.0,0,1,0,0,1,1,Female,37.0,undergraduate: 4th year,25,10,Other,0.0,1.0,1.0,Weekly,Multiple times a day,Stocks,No,LV,1000,1000.0
146,n2yva9t6,xm39f2ij,8,Trade_ends,2021-11-17 17:32:00.286731+00:00,"{""currentPrice"": 25, ""priceIndex"": 16, ""secs_since_round_starts"": 33}",True,0.05,False,25.0,10.0,30.0,25,16,33,2.0,0,1,0,0,1,0,Male,27.0,undergraduate: 4th year,7,7,Other,0.0,1.0,0.0,Less than once a month,Monthly,Stocks,No,CA,1000,1000.0
147,qn2tqknk,xm39f2ij,6,Trade_ends,2021-11-17 17:32:07.577966+00:00,"{""currentPrice"": 0, ""priceIndex"": 27, ""secs_since_round_starts"": 54}",False,0.05,False,0.0,10.0,30.0,0,27,54,2.0,1,0,0,0,1,1,Female,42.0,undergraduate: 2nd year,49,5,Other,0.0,1.0,1.0,Weekly,Daily,Stocks,No,US,54,0.0
148,fjwkepy9,tcbozsj9,6,Trade_ends,2021-11-17 17:32:12.116077+00:00,"{""currentPrice"": 14, ""priceIndex"": 3, ""secs_since_round_starts"": 8}",False,0.05,False,14.0,10.0,30.0,14,3,8,2.0,0,1,0,0,1,1,Female,25.0,master,8,8,Other,0.0,1.0,1.0,Less than once a month,Weekly,Stocks,No,GB,1000,1000.0
149,dkehpy51,tcbozsj9,4,Trade_ends,2021-11-17 17:32:14.468639+00:00,"{""currentPrice"": 17, ""priceIndex"": 7, ""secs_since_round_starts"": 17}",True,0.02,False,17.0,10.0,30.0,17,7,17,2.0,0,1,0,0,1,1,Female,50.0,PhD,24,7,Other,0.0,0.0,1.0,Less than once a month,Less than once a month,Stocks,No,GB,1000,1000.0
150,3q7w2q92,xm39f2ij,8,Trade_ends,2021-11-17 17:32:14.578459+00:00,"{""currentPrice"": 18, ""priceIndex"": 4, ""secs_since_round_starts"": 10}",False,0.05,False,18.0,10.0,30.0,18,4,10,2.0,0,1,0,0,1,1,Female,37.0,undergraduate: 4th year,25,10,Other,0.0,1.0,1.0,Weekly,Multiple times a day,Stocks,No,LV,1000,1000.0
151,fckp7nk6,xm39f2ij,7,Trade_ends,2021-11-17 17:32:17.365347+00:00,"{""currentPrice"": 21, ""priceIndex"": 13, ""secs_since_round_starts"": 28}",True,0.02,False,21.0,10.0,30.0,21,13,28,2.0,0,1,0,0,1,0,Male,34.0,undergraduate: 4th year,22,6,Other,0.0,1.0,1.0,Less than once a month,Less than once a month,Stocks,No,CA,1000,1000.0
152,fjwkepy9,tcbozsj9,7,Trade_ends,2021-11-17 17:32:19.647766+00:00,"{""currentPrice"": 0, ""priceIndex"": 2, ""secs_since_round_starts"": 4}",False,0.02,False,0.0,10.0,30.0,0,2,4,2.0,1,0,0,0,1,1,Female,25.0,master,8,8,Other,0.0,1.0,1.0,Less than once a month,Weekly,Stocks,No,GB,4,0.0
153,5rlkxybf,tcbozsj9,7,Trade_ends,2021-11-17 17:32:20.457727+00:00,"{""currentPrice"": 18, ""priceIndex"": 7, ""secs_since_round_starts"": 16}",True,0.02,False,18.0,10.0,30.0,18,7,16,2.0,0,1,0,0,1,0,Female,53.0,master,23,5,Other,0.0,0.0,0.0,Less than once a month,Less than once a month,Stocks,No,GB,1000,1000.0
154,yfb9i7lp,tcbozsj9,2,Trade_ends,2021-11-17 17:32:21.623348+00:00,"{""currentPrice"": 18, ""priceIndex"": 7, ""secs_since_round_starts"": 16}",True,0.02,False,18.0,10.0,30.0,18,7,16,2.0,0,1,0,0,1,1,Male,44.0,master,28,11,Other,0.0,1.0,1.0,Daily,Daily,Stocks,Yes,GB,1000,1000.0
155,3q7w2q92,xm39f2ij,9,Trade_ends,2021-11-17 17:32:23.553504+00:00,"{""currentPrice"": 12, ""priceIndex"": 2, ""secs_since_round_starts"": 5}",False,0.02,False,12.0,10.0,30.0,12,2,5,2.0,0,1,0,0,1,1,Female,37.0,undergraduate: 4th year,25,10,Other,0.0,1.0,1.0,Weekly,Multiple times a day,Stocks,No,LV,1000,1000.0
156,dkehpy51,tcbozsj9,5,Trade_ends,2021-11-17 17:32:26.572804+00:00,"{""currentPrice"": 0, ""priceIndex"": 4, ""secs_since_round_starts"": 8}",True,0.05,False,0.0,10.0,30.0,0,4,8,2.0,1,0,0,0,1,1,Female,50.0,PhD,24,7,Other,0.0,0.0,1.0,Less than once a month,Less than once a month,Stocks,No,GB,8,0.0
157,2viqvnbq,tcbozsj9,4,Trade_ends,2021-11-17 17:32:27.866831+00:00,"{""currentPrice"": 23, ""priceIndex"": 13, ""secs_since_round_starts"": 28}",True,0.02,False,23.0,10.0,30.0,23,13,28,2.0,0,1,0,0,1,1,Female,45.0,PhD,8,8,Other,0.0,1.0,0.0,Less than once a month,Daily,Cryptocurrencies,No,GB,1000,1000.0
158,lp1ktm6e,tcbozsj9,5,Trade_ends,2021-11-17 17:32:29.182800+00:00,"{""currentPrice"": 22, ""priceIndex"": 14, ""secs_since_round_starts"": 30}",False,0.05,False,22.0,10.0,30.0,22,14,30,2.0,0,1,0,0,1,0,Male,34.0,master,30,7,Other,0.0,0.0,0.0,Less than once a month,Less than once a month,Cryptocurrencies,No,GB,1000,1000.0
159,fjwkepy9,tcbozsj9,8,Trade_ends,2021-11-17 17:32:29.248539+00:00,"{""currentPrice"": 13, ""priceIndex"": 2, ""secs_since_round_starts"": 5}",False,0.05,False,13.0,10.0,30.0,13,2,5,2.0,0,1,0,0,1,1,Female,25.0,master,8,8,Other,0.0,1.0,1.0,Less than once a month,Weekly,Stocks,No,GB,1000,1000.0
160,yfb9i7lp,tcbozsj9,3,Trade_ends,2021-11-17 17:32:32.308485+00:00,"{""currentPrice"": 12, ""priceIndex"": 2, ""secs_since_round_starts"": 6}",True,0.05,False,12.0,10.0,30.0,12,2,6,2.0,0,1,0,0,1,1,Male,44.0,master,28,11,Other,0.0,1.0,1.0,Daily,Daily,Stocks,Yes,GB,1000,1000.0
161,fckp7nk6,xm39f2ij,8,Trade_ends,2021-11-17 17:32:33.091774+00:00,"{""currentPrice"": 0, ""priceIndex"": 6, ""secs_since_round_starts"": 12}",True,0.05,False,0.0,10.0,30.0,0,6,12,2.0,1,0,0,0,1,0,Male,34.0,undergraduate: 4th year,22,6,Other,0.0,1.0,1.0,Less than once a month,Less than once a month,Stocks,No,CA,12,0.0
162,dkehpy51,tcbozsj9,6,Trade_ends,2021-11-17 17:32:40.096369+00:00,"{""currentPrice"": 0, ""priceIndex"": 4, ""secs_since_round_starts"": 8}",False,0.05,False,0.0,10.0,30.0,0,4,8,2.0,1,0,0,0,1,1,Female,50.0,PhD,24,7,Other,0.0,0.0,1.0,Less than once a month,Less than once a month,Stocks,No,GB,8,0.0
163,5rlkxybf,tcbozsj9,8,Trade_ends,2021-11-17 17:32:42.722453+00:00,"{""currentPrice"": 16, ""priceIndex"": 7, ""secs_since_round_starts"": 16}",True,0.05,False,16.0,10.0,30.0,16,7,16,2.0,0,1,0,0,1,0,Female,53.0,master,23,5,Other,0.0,0.0,0.0,Less than once a month,Less than once a month,Stocks,No,GB,1000,1000.0
164,fjwkepy9,tcbozsj9,9,Trade_ends,2021-11-17 17:32:44.450095+00:00,"{""currentPrice"": 13, ""priceIndex"": 5, ""secs_since_round_starts"": 12}",False,0.02,False,13.0,10.0,30.0,13,5,12,2.0,0,1,0,0,1,1,Female,25.0,master,8,8,Other,0.0,1.0,1.0,Less than once a month,Weekly,Stocks,No,GB,1000,1000.0
165,ukijph7d,xm39f2ij,7,Trade_ends,2021-11-17 17:32:51.236651+00:00,"{""currentPrice"": 38, ""priceIndex"": 30, ""secs_since_round_starts"": 60}",False,0.02,False,38.0,10.0,30.0,38,30,60,2.0,0,0,1,0,1,1,Male,26.0,undergraduate: 2nd year,8,8,Other,0.0,1.0,1.0,Less than once a month,Weekly,Stocks,No,GB,60,1000.0
166,dkehpy51,tcbozsj9,7,Trade_ends,2021-11-17 17:32:51.349055+00:00,"{""currentPrice"": 11, ""priceIndex"": 2, ""secs_since_round_starts"": 7}",False,0.02,False,11.0,10.0,30.0,11,2,7,2.0,0,1,0,0,1,1,Female,50.0,PhD,24,7,Other,0.0,0.0,1.0,Less than once a month,Less than once a month,Stocks,No,GB,1000,1000.0
167,lp1ktm6e,tcbozsj9,6,Trade_ends,2021-11-17 17:32:51.943879+00:00,"{""currentPrice"": 0, ""priceIndex"": 9, ""secs_since_round_starts"": 18}",True,0.05,False,0.0,10.0,30.0,0,9,18,2.0,1,0,0,0,1,0,Male,34.0,master,30,7,Other,0.0,0.0,0.0,Less than once a month,Less than once a month,Cryptocurrencies,No,GB,18,0.0
168,yfb9i7lp,tcbozsj9,4,Trade_ends,2021-11-17 17:32:52.988539+00:00,"{""currentPrice"": 19, ""priceIndex"": 7, ""secs_since_round_starts"": 16}",True,0.02,False,19.0,10.0,30.0,19,7,16,2.0,0,1,0,0,1,1,Male,44.0,master,28,11,Other,0.0,1.0,1.0,Daily,Daily,Stocks,Yes,GB,1000,1000.0
169,n2yva9t6,xm39f2ij,9,Trade_ends,2021-11-17 17:32:53.471449+00:00,"{""currentPrice"": 31, ""priceIndex"": 21, ""secs_since_round_starts"": 50}",True,0.02,False,31.0,10.0,30.0,31,21,50,2.0,0,1,0,1,1,0,Male,27.0,undergraduate: 4th year,7,7,Other,0.0,1.0,0.0,Less than once a month,Monthly,Stocks,No,CA,1000,1000.0
170,dkehpy51,tcbozsj9,8,Trade_ends,2021-11-17 17:33:01.851821+00:00,"{""currentPrice"": 11, ""priceIndex"": 2, ""secs_since_round_starts"": 6}",False,0.05,False,11.0,10.0,30.0,11,2,6,2.0,0,1,0,0,1,1,Female,50.0,PhD,24,7,Other,0.0,0.0,1.0,Less than once a month,Less than once a month,Stocks,No,GB,1000,1000.0
171,5rlkxybf,tcbozsj9,9,Trade_ends,2021-11-17 17:33:03.055146+00:00,"{""currentPrice"": 20, ""priceIndex"": 7, ""secs_since_round_starts"": 15}",True,0.02,False,20.0,10.0,30.0,20,7,15,2.0,0,1,0,0,1,0,Female,53.0,master,23,5,Other,0.0,0.0,0.0,Less than once a month,Less than once a month,Stocks,No,GB,1000,1000.0
172,yfb9i7lp,tcbozsj9,5,Trade_ends,2021-11-17 17:33:04.270982+00:00,"{""currentPrice"": 11, ""priceIndex"": 2, ""secs_since_round_starts"": 6}",True,0.05,False,11.0,10.0,30.0,11,2,6,2.0,0,1,0,0,1,1,Male,44.0,master,28,11,Other,0.0,1.0,1.0,Daily,Daily,Stocks,Yes,GB,1000,1000.0
173,2yc2dnx4,xm39f2ij,2,Trade_ends,2021-11-17 17:33:05.322577+00:00,"{""currentPrice"": 0, ""priceIndex"": 15, ""secs_since_round_starts"": 30}",False,0.02,False,0.0,10.0,30.0,0,15,30,2.0,1,0,0,0,1,0,Female,38.0,undergraduate: 4th year,10,10,Finance,1.0,1.0,0.0,Daily,Daily,Stocks,No,CA,30,0.0
174,dkehpy51,tcbozsj9,9,Trade_ends,2021-11-17 17:33:09.195983+00:00,"{""currentPrice"": 0, ""priceIndex"": 2, ""secs_since_round_starts"": 4}",False,0.02,False,0.0,10.0,30.0,0,2,4,2.0,1,0,0,0,1,1,Female,50.0,PhD,24,7,Other,0.0,0.0,1.0,Less than once a month,Less than once a month,Stocks,No,GB,4,0.0
175,2viqvnbq,tcbozsj9,5,Trade_ends,2021-11-17 17:33:11.498081+00:00,"{""currentPrice"": 27, ""priceIndex"": 18, ""secs_since_round_starts"": 38}",True,0.05,False,27.0,10.0,30.0,27,18,38,2.0,0,1,0,0,1,1,Female,45.0,PhD,8,8,Other,0.0,1.0,0.0,Less than once a month,Daily,Cryptocurrencies,No,GB,1000,1000.0
176,qn2tqknk,xm39f2ij,7,Trade_ends,2021-11-17 17:33:13.505038+00:00,"{""currentPrice"": 39, ""priceIndex"": 30, ""secs_since_round_starts"": 60}",False,0.02,False,39.0,10.0,30.0,39,30,60,2.0,0,0,1,0,1,1,Female,42.0,undergraduate: 2nd year,49,5,Other,0.0,1.0,1.0,Weekly,Daily,Stocks,No,US,60,1000.0
177,2yc2dnx4,xm39f2ij,3,Trade_ends,2021-11-17 17:33:14.479642+00:00,"{""currentPrice"": 0, ""priceIndex"": 2, ""secs_since_round_starts"": 4}",False,0.05,False,0.0,10.0,30.0,0,2,4,2.0,1,0,0,0,1,0,Female,38.0,undergraduate: 4th year,10,10,Finance,1.0,1.0,0.0,Daily,Daily,Stocks,No,CA,4,0.0
178,ukijph7d,xm39f2ij,8,Trade_ends,2021-11-17 17:33:17.906962+00:00,"{""currentPrice"": 21, ""priceIndex"": 8, ""secs_since_round_starts"": 19}",False,0.05,False,21.0,10.0,30.0,21,8,19,2.0,0,1,0,0,1,1,Male,26.0,undergraduate: 2nd year,8,8,Other,0.0,1.0,1.0,Less than once a month,Weekly,Stocks,No,GB,1000,1000.0
179,2viqvnbq,tcbozsj9,6,Trade_ends,2021-11-17 17:33:19.079454+00:00,"{""currentPrice"": 0, ""priceIndex"": 1, ""secs_since_round_starts"": 2}",False,0.05,False,0.0,10.0,30.0,0,1,2,2.0,1,0,0,0,1,1,Female,45.0,PhD,8,8,Other,0.0,1.0,0.0,Less than once a month,Daily,Cryptocurrencies,No,GB,2,0.0
180,yfb9i7lp,tcbozsj9,6,Trade_ends,2021-11-17 17:33:19.186269+00:00,"{""currentPrice"": 12, ""priceIndex"": 4, ""secs_since_round_starts"": 10}",False,0.05,False,12.0,10.0,30.0,12,4,10,2.0,0,1,0,0,1,1,Male,44.0,master,28,11,Other,0.0,1.0,1.0,Daily,Daily,Stocks,Yes,GB,1000,1000.0
181,fckp7nk6,xm39f2ij,9,Trade_ends,2021-11-17 17:33:20.704844+00:00,"{""currentPrice"": 22, ""priceIndex"": 18, ""secs_since_round_starts"": 38}",True,0.02,False,22.0,10.0,30.0,22,18,38,2.0,0,1,0,0,1,0,Male,34.0,undergraduate: 4th year,22,6,Other,0.0,1.0,1.0,Less than once a month,Less than once a month,Stocks,No,CA,1000,1000.0
183,ns6o6iog,xm39f2ij,2,Trade_ends,2021-11-17 17:33:37.569598+00:00,"{""currentPrice"": 39, ""priceIndex"": 30, ""secs_since_round_starts"": 60}",False,0.02,False,39.0,10.0,30.0,39,30,60,2.0,0,0,1,0,1,0,Female,36.0,high-school graduate,44,7,Other,0.0,1.0,0.0,Monthly,Monthly,Stocks,No,GB,60,1000.0
184,yfb9i7lp,tcbozsj9,7,Trade_ends,2021-11-17 17:33:38.830611+00:00,"{""currentPrice"": 18, ""priceIndex"": 7, ""secs_since_round_starts"": 16}",False,0.02,False,18.0,10.0,30.0,18,7,16,2.0,0,1,0,0,1,1,Male,44.0,master,28,11,Other,0.0,1.0,1.0,Daily,Daily,Stocks,Yes,GB,1000,1000.0
185,lp1ktm6e,tcbozsj9,7,Trade_ends,2021-11-17 17:33:45.165976+00:00,"{""currentPrice"": 32, ""priceIndex"": 22, ""secs_since_round_starts"": 47}",True,0.02,False,32.0,10.0,30.0,32,22,47,2.0,0,1,0,0,1,0,Male,34.0,master,30,7,Other,0.0,0.0,0.0,Less than once a month,Less than once a month,Cryptocurrencies,No,GB,1000,1000.0
186,2viqvnbq,tcbozsj9,7,Trade_ends,2021-11-17 17:33:46.534038+00:00,"{""currentPrice"": 0, ""priceIndex"": 10, ""secs_since_round_starts"": 20}",False,0.02,False,0.0,10.0,30.0,0,10,20,2.0,1,0,0,0,1,1,Female,45.0,PhD,8,8,Other,0.0,1.0,0.0,Less than once a month,Daily,Cryptocurrencies,No,GB,20,0.0
187,yfb9i7lp,tcbozsj9,8,Trade_ends,2021-11-17 17:33:48.543636+00:00,"{""currentPrice"": 13, ""priceIndex"": 2, ""secs_since_round_starts"": 6}",False,0.05,False,13.0,10.0,30.0,13,2,6,2.0,0,1,0,0,1,1,Male,44.0,master,28,11,Other,0.0,1.0,1.0,Daily,Daily,Stocks,Yes,GB,1000,1000.0
188,2yc2dnx4,xm39f2ij,4,Trade_ends,2021-11-17 17:33:48.680840+00:00,"{""currentPrice"": 0, ""priceIndex"": 15, ""secs_since_round_starts"": 30}",False,0.02,False,0.0,10.0,30.0,0,15,30,2.0,1,0,0,0,1,0,Female,38.0,undergraduate: 4th year,10,10,Finance,1.0,1.0,0.0,Daily,Daily,Stocks,No,CA,30,0.0
189,lp1ktm6e,tcbozsj9,8,Trade_ends,2021-11-17 17:33:52.151860+00:00,"{""currentPrice"": 0, ""priceIndex"": 1, ""secs_since_round_starts"": 2}",True,0.05,False,0.0,10.0,30.0,0,1,2,2.0,1,0,0,0,1,0,Male,34.0,master,30,7,Other,0.0,0.0,0.0,Less than once a month,Less than once a month,Cryptocurrencies,No,GB,2,0.0
190,2viqvnbq,tcbozsj9,8,Trade_ends,2021-11-17 17:33:59.362877+00:00,"{""currentPrice"": 0, ""priceIndex"": 4, ""secs_since_round_starts"": 8}",False,0.05,False,0.0,10.0,30.0,0,4,8,2.0,1,0,0,0,1,1,Female,45.0,PhD,8,8,Other,0.0,1.0,0.0,Less than once a month,Daily,Cryptocurrencies,No,GB,8,0.0
191,yfb9i7lp,tcbozsj9,9,Trade_ends,2021-11-17 17:34:06.248305+00:00,"{""currentPrice"": 17, ""priceIndex"": 6, ""secs_since_round_starts"": 14}",False,0.02,False,17.0,10.0,30.0,17,6,14,2.0,0,1,0,0,1,1,Male,44.0,master,28,11,Other,0.0,1.0,1.0,Daily,Daily,Stocks,Yes,GB,1000,1000.0
192,c8pbk5uk,tcbozsj9,3,Trade_ends,2021-11-17 17:34:18.436680+00:00,"{""currentPrice"": 34, ""priceIndex"": 22, ""secs_since_round_starts"": 47}",True,0.05,False,34.0,10.0,30.0,34,22,47,2.0,0,1,0,0,1,1,Male,41.0,master,8,8,Other,0.0,1.0,1.0,Monthly,Weekly,Stocks,No,GB,1000,1000.0
193,ukijph7d,xm39f2ij,9,Trade_ends,2021-11-17 17:34:20.293723+00:00,"{""currentPrice"": 36, ""priceIndex"": 27, ""secs_since_round_starts"": 57}",False,0.02,False,36.0,10.0,30.0,36,27,57,2.0,0,1,0,0,1,1,Male,26.0,undergraduate: 2nd year,8,8,Other,0.0,1.0,1.0,Less than once a month,Weekly,Stocks,No,GB,1000,1000.0
194,2yc2dnx4,xm39f2ij,5,Trade_ends,2021-11-17 17:34:21.487769+00:00,"{""currentPrice"": 26, ""priceIndex"": 12, ""secs_since_round_starts"": 27}",False,0.05,False,26.0,10.0,30.0,26,12,27,2.0,0,1,0,0,1,0,Female,38.0,undergraduate: 4th year,10,10,Finance,1.0,1.0,0.0,Daily,Daily,Stocks,No,CA,1000,1000.0
195,n779o0ut,xm39f2ij,2,Trade_ends,2021-11-17 17:34:26.156191+00:00,"{""currentPrice"": 19, ""priceIndex"": 12, ""secs_since_round_starts"": 27}",True,0.02,False,19.0,10.0,30.0,19,12,27,2.0,0,1,0,0,1,1,Female,37.0,undergraduate: 3d year,25,9,Other,0.0,1.0,0.0,Less than once a month,Daily,Stocks,No,GB,1000,1000.0
196,2viqvnbq,tcbozsj9,9,Trade_ends,2021-11-17 17:34:27.038201+00:00,"{""currentPrice"": 21, ""priceIndex"": 10, ""secs_since_round_starts"": 22}",False,0.02,False,21.0,10.0,30.0,21,10,22,2.0,0,1,0,0,1,1,Female,45.0,PhD,8,8,Other,0.0,1.0,0.0,Less than once a month,Daily,Cryptocurrencies,No,GB,1000,1000.0
197,qn2tqknk,xm39f2ij,8,Trade_ends,2021-11-17 17:34:33.548045+00:00,"{""currentPrice"": 0, ""priceIndex"": 1, ""secs_since_round_starts"": 2}",False,0.05,False,0.0,10.0,30.0,0,1,2,2.0,1,0,0,0,1,1,Female,42.0,undergraduate: 2nd year,49,5,Other,0.0,1.0,1.0,Weekly,Daily,Stocks,No,US,2,0.0
198,wfgqcqq1,xm39f2ij,2,Trade_ends,2021-11-17 17:34:36.487478+00:00,"{""currentPrice"": 12, ""priceIndex"": 4, ""secs_since_round_starts"": 10}",True,0.02,False,12.0,10.0,30.0,12,4,10,2.0,0,1,0,0,1,1,Female,55.0,high-school graduate,18,6,Other,0.0,1.0,0.0,Less than once a month,Less than once a month,Stocks,Do not know,GB,1000,1000.0
199,n779o0ut,xm39f2ij,3,Trade_ends,2021-11-17 17:34:41.919084+00:00,"{""currentPrice"": 0, ""priceIndex"": 5, ""secs_since_round_starts"": 10}",True,0.05,False,0.0,10.0,30.0,0,5,10,2.0,1,0,0,0,1,1,Female,37.0,undergraduate: 3d year,25,9,Other,0.0,1.0,0.0,Less than once a month,Daily,Stocks,No,GB,10,0.0
200,ns6o6iog,xm39f2ij,3,Trade_ends,2021-11-17 17:34:43.307969+00:00,"{""currentPrice"": 37, ""priceIndex"": 30, ""secs_since_round_starts"": 60}",False,0.05,False,37.0,10.0,30.0,37,30,60,2.0,0,0,1,0,1,0,Female,36.0,high-school graduate,44,7,Other,0.0,1.0,0.0,Monthly,Monthly,Stocks,No,GB,60,1000.0
201,lp1ktm6e,tcbozsj9,9,Trade_ends,2021-11-17 17:34:46.161613+00:00,"{""currentPrice"": 25, ""priceIndex"": 23, ""secs_since_round_starts"": 48}",True,0.02,False,25.0,10.0,30.0,25,23,48,2.0,0,1,0,0,1,0,Male,34.0,master,30,7,Other,0.0,0.0,0.0,Less than once a month,Less than once a month,Cryptocurrencies,No,GB,1000,1000.0
202,wfgqcqq1,xm39f2ij,3,Trade_ends,2021-11-17 17:34:47.894776+00:00,"{""currentPrice"": 12, ""priceIndex"": 2, ""secs_since_round_starts"": 5}",True,0.05,False,12.0,10.0,30.0,12,2,5,2.0,0,1,0,0,1,1,Female,55.0,high-school graduate,18,6,Other,0.0,1.0,0.0,Less than once a month,Less than once a month,Stocks,Do not know,GB,1000,1000.0
203,wfgqcqq1,xm39f2ij,4,Trade_ends,2021-11-17 17:34:59.222577+00:00,"{""currentPrice"": 13, ""priceIndex"": 3, ""secs_since_round_starts"": 7}",True,0.02,False,13.0,10.0,30.0,13,3,7,2.0,0,1,0,0,1,1,Female,55.0,high-school graduate,18,6,Other,0.0,1.0,0.0,Less than once a month,Less than once a month,Stocks,Do not know,GB,1000,1000.0
204,2yc2dnx4,xm39f2ij,6,Trade_ends,2021-11-17 17:35:02.716001+00:00,"{""currentPrice"": 27, ""priceIndex"": 17, ""secs_since_round_starts"": 37}",True,0.05,False,27.0,10.0,30.0,27,17,37,2.0,0,1,0,0,1,0,Female,38.0,undergraduate: 4th year,10,10,Finance,1.0,1.0,0.0,Daily,Daily,Stocks,No,CA,1000,1000.0
205,g55an9bs,tcbozsj9,2,Trade_ends,2021-11-17 17:35:06.108154+00:00,"{""currentPrice"": 18, ""priceIndex"": 8, ""secs_since_round_starts"": 19}",True,0.02,False,18.0,10.0,30.0,18,8,19,2.0,0,1,0,0,1,1,Female,44.0,undergraduate: 4th year,22,7,Other Management,0.0,0.0,0.0,Less than once a month,Less than once a month,Stocks,No,GB,1000,1000.0
206,wfgqcqq1,xm39f2ij,5,Trade_ends,2021-11-17 17:35:09.712926+00:00,"{""currentPrice"": 13, ""priceIndex"": 2, ""secs_since_round_starts"": 5}",True,0.05,False,13.0,10.0,30.0,13,2,5,2.0,0,1,0,0,1,1,Female,55.0,high-school graduate,18,6,Other,0.0,1.0,0.0,Less than once a month,Less than once a month,Stocks,Do not know,GB,1000,1000.0
207,n779o0ut,xm39f2ij,4,Trade_ends,2021-11-17 17:35:14.542688+00:00,"{""currentPrice"": 16, ""priceIndex"": 9, ""secs_since_round_starts"": 22}",True,0.02,False,16.0,10.0,30.0,16,9,22,2.0,0,1,0,0,1,1,Female,37.0,undergraduate: 3d year,25,9,Other,0.0,1.0,0.0,Less than once a month,Daily,Stocks,No,GB,1000,1000.0
208,wfgqcqq1,xm39f2ij,6,Trade_ends,2021-11-17 17:35:20.891808+00:00,"{""currentPrice"": 12, ""priceIndex"": 2, ""secs_since_round_starts"": 7}",False,0.05,False,12.0,10.0,30.0,12,2,7,2.0,0,1,0,0,1,1,Female,55.0,high-school graduate,18,6,Other,0.0,1.0,0.0,Less than once a month,Less than once a month,Stocks,Do not know,GB,1000,1000.0
209,c8pbk5uk,tcbozsj9,4,Trade_ends,2021-11-17 17:35:23.640688+00:00,"{""currentPrice"": 42, ""priceIndex"": 30, ""secs_since_round_starts"": 60}",True,0.02,False,42.0,10.0,30.0,42,30,60,2.0,0,0,1,0,1,1,Male,41.0,master,8,8,Other,0.0,1.0,1.0,Monthly,Weekly,Stocks,No,GB,60,1000.0
210,g55an9bs,tcbozsj9,3,Trade_ends,2021-11-17 17:35:29.002540+00:00,"{""currentPrice"": 20, ""priceIndex"": 8, ""secs_since_round_starts"": 18}",True,0.05,False,20.0,10.0,30.0,20,8,18,2.0,0,1,0,0,1,1,Female,44.0,undergraduate: 4th year,22,7,Other Management,0.0,0.0,0.0,Less than once a month,Less than once a month,Stocks,No,GB,1000,1000.0
211,wfgqcqq1,xm39f2ij,7,Trade_ends,2021-11-17 17:35:30.970780+00:00,"{""currentPrice"": 12, ""priceIndex"": 2, ""secs_since_round_starts"": 6}",False,0.02,False,12.0,10.0,30.0,12,2,6,2.0,0,1,0,0,1,1,Female,55.0,high-school graduate,18,6,Other,0.0,1.0,0.0,Less than once a month,Less than once a month,Stocks,Do not know,GB,1000,1000.0
212,n779o0ut,xm39f2ij,5,Trade_ends,2021-11-17 17:35:37.548122+00:00,"{""currentPrice"": 17, ""priceIndex"": 7, ""secs_since_round_starts"": 17}",True,0.05,False,17.0,10.0,30.0,17,7,17,2.0,0,1,0,0,1,1,Female,37.0,undergraduate: 3d year,25,9,Other,0.0,1.0,0.0,Less than once a month,Daily,Stocks,No,GB,1000,1000.0
213,wfgqcqq1,xm39f2ij,8,Trade_ends,2021-11-17 17:35:38.213566+00:00,"{""currentPrice"": 12, ""priceIndex"": 1, ""secs_since_round_starts"": 3}",False,0.05,False,12.0,10.0,30.0,12,1,3,2.0,0,1,0,0,1,1,Female,55.0,high-school graduate,18,6,Other,0.0,1.0,0.0,Less than once a month,Less than once a month,Stocks,Do not know,GB,1000,1000.0
214,qn2tqknk,xm39f2ij,9,Trade_ends,2021-11-17 17:35:40.487641+00:00,"{""currentPrice"": 44, ""priceIndex"": 30, ""secs_since_round_starts"": 60}",False,0.02,False,44.0,10.0,30.0,44,30,60,2.0,0,0,1,0,1,1,Female,42.0,undergraduate: 2nd year,49,5,Other,0.0,1.0,1.0,Weekly,Daily,Stocks,No,US,60,1000.0
215,stvlmepj,tcbozsj9,2,Trade_ends,2021-11-17 17:35:40.978866+00:00,"{""currentPrice"": 12, ""priceIndex"": 4, ""secs_since_round_starts"": 11}",False,0.02,False,12.0,10.0,30.0,12,4,11,2.0,0,1,0,0,1,0,Female,24.0,master,35,9,Economics,1.0,1.0,1.0,Weekly,Daily,Bonds,No,CN,1000,1000.0
216,wfgqcqq1,xm39f2ij,9,Trade_ends,2021-11-17 17:35:43.904447+00:00,"{""currentPrice"": 10, ""priceIndex"": 0, ""secs_since_round_starts"": 2}",False,0.02,False,10.0,10.0,30.0,10,0,2,2.0,0,1,0,0,1,1,Female,55.0,high-school graduate,18,6,Other,0.0,1.0,0.0,Less than once a month,Less than once a month,Stocks,Do not know,GB,1000,1000.0
217,c8pbk5uk,tcbozsj9,5,Trade_ends,2021-11-17 17:35:45.349238+00:00,"{""currentPrice"": 0, ""priceIndex"": 8, ""secs_since_round_starts"": 16}",True,0.05,False,0.0,10.0,30.0,0,8,16,2.0,1,0,0,0,1,1,Male,41.0,master,8,8,Other,0.0,1.0,1.0,Monthly,Weekly,Stocks,No,GB,16,0.0
218,0r2yaece,xm39f2ij,2,Trade_ends,2021-11-17 17:35:49.809694+00:00,"{""currentPrice"": 28, ""priceIndex"": 14, ""secs_since_round_starts"": 31}",True,0.02,False,28.0,10.0,30.0,28,14,31,2.0,0,1,0,0,1,1,Female,55.0,undergraduate: 2nd year,6,6,Finance,0.0,1.0,0.0,Less than once a month,Weekly,Stocks,No,GB,1000,1000.0
219,te4hnjkl,tcbozsj9,2,Trade_ends,2021-11-17 17:35:51.448267+00:00,"{""currentPrice"": 0, ""priceIndex"": 5, ""secs_since_round_starts"": 10}",True,0.02,False,0.0,10.0,30.0,0,5,10,2.0,1,0,0,0,1,1,Male,39.0,master,26,6,Other,0.0,1.0,1.0,Monthly,Weekly,Stocks,No,GB,10,0.0
220,ns6o6iog,xm39f2ij,4,Trade_ends,2021-11-17 17:35:51.601582+00:00,"{""currentPrice"": 35, ""priceIndex"": 30, ""secs_since_round_starts"": 60}",False,0.02,False,35.0,10.0,30.0,35,30,60,2.0,0,0,1,0,1,0,Female,36.0,high-school graduate,44,7,Other,0.0,1.0,0.0,Monthly,Monthly,Stocks,No,GB,60,1000.0
221,stvlmepj,tcbozsj9,3,Trade_ends,2021-11-17 17:35:55.192555+00:00,"{""currentPrice"": 13, ""priceIndex"": 3, ""secs_since_round_starts"": 10}",False,0.05,False,13.0,10.0,30.0,13,3,10,2.0,0,1,0,0,1,0,Female,24.0,master,35,9,Economics,1.0,1.0,1.0,Weekly,Daily,Bonds,No,CN,1000,1000.0
222,g55an9bs,tcbozsj9,4,Trade_ends,2021-11-17 17:36:00.670016+00:00,"{""currentPrice"": 22, ""priceIndex"": 12, ""secs_since_round_starts"": 26}",True,0.02,False,22.0,10.0,30.0,22,12,26,2.0,0,1,0,0,1,1,Female,44.0,undergraduate: 4th year,22,7,Other Management,0.0,0.0,0.0,Less than once a month,Less than once a month,Stocks,No,GB,1000,1000.0
223,n779o0ut,xm39f2ij,6,Trade_ends,2021-11-17 17:36:01.014344+00:00,"{""currentPrice"": 20, ""priceIndex"": 8, ""secs_since_round_starts"": 18}",False,0.05,False,20.0,10.0,30.0,20,8,18,2.0,0,1,0,0,1,1,Female,37.0,undergraduate: 3d year,25,9,Other,0.0,1.0,0.0,Less than once a month,Daily,Stocks,No,GB,1000,1000.0
224,2yc2dnx4,xm39f2ij,7,Trade_ends,2021-11-17 17:36:06.144344+00:00,"{""currentPrice"": 37, ""priceIndex"": 30, ""secs_since_round_starts"": 60}",True,0.02,False,37.0,10.0,30.0,37,30,60,2.0,0,0,1,0,1,0,Female,38.0,undergraduate: 4th year,10,10,Finance,1.0,1.0,0.0,Daily,Daily,Stocks,No,CA,60,1000.0
225,0r2yaece,xm39f2ij,3,Trade_ends,2021-11-17 17:36:12.600234+00:00,"{""currentPrice"": 0, ""priceIndex"": 7, ""secs_since_round_starts"": 14}",True,0.05,False,0.0,10.0,30.0,0,7,14,2.0,1,0,0,0,1,1,Female,55.0,undergraduate: 2nd year,6,6,Finance,0.0,1.0,0.0,Less than once a month,Weekly,Stocks,No,GB,14,0.0
226,g55an9bs,tcbozsj9,5,Trade_ends,2021-11-17 17:36:16.814678+00:00,"{""currentPrice"": 0, ""priceIndex"": 6, ""secs_since_round_starts"": 12}",True,0.05,False,0.0,10.0,30.0,0,6,12,2.0,1,0,0,0,1,1,Female,44.0,undergraduate: 4th year,22,7,Other Management,0.0,0.0,0.0,Less than once a month,Less than once a month,Stocks,No,GB,12,0.0
227,te4hnjkl,tcbozsj9,3,Trade_ends,2021-11-17 17:36:22.902258+00:00,"{""currentPrice"": 21, ""priceIndex"": 9, ""secs_since_round_starts"": 20}",True,0.05,False,21.0,10.0,30.0,21,9,20,2.0,0,1,0,0,1,1,Male,39.0,master,26,6,Other,0.0,1.0,1.0,Monthly,Weekly,Stocks,No,GB,1000,1000.0
228,n779o0ut,xm39f2ij,7,Trade_ends,2021-11-17 17:36:29.725372+00:00,"{""currentPrice"": 22, ""priceIndex"": 9, ""secs_since_round_starts"": 21}",False,0.02,False,22.0,10.0,30.0,22,9,21,2.0,0,1,0,0,1,1,Female,37.0,undergraduate: 3d year,25,9,Other,0.0,1.0,0.0,Less than once a month,Daily,Stocks,No,GB,1000,1000.0
229,c8pbk5uk,tcbozsj9,6,Trade_ends,2021-11-17 17:36:31.206964+00:00,"{""currentPrice"": 20, ""priceIndex"": 17, ""secs_since_round_starts"": 37}",False,0.05,False,20.0,10.0,30.0,20,17,37,2.0,0,1,0,0,1,1,Male,41.0,master,8,8,Other,0.0,1.0,1.0,Monthly,Weekly,Stocks,No,GB,1000,1000.0
230,g55an9bs,tcbozsj9,6,Trade_ends,2021-11-17 17:36:36.106170+00:00,"{""currentPrice"": 15, ""priceIndex"": 5, ""secs_since_round_starts"": 13}",False,0.05,False,15.0,10.0,30.0,15,5,13,2.0,0,1,0,0,1,1,Female,44.0,undergraduate: 4th year,22,7,Other Management,0.0,0.0,0.0,Less than once a month,Less than once a month,Stocks,No,GB,1000,1000.0
231,0r2yaece,xm39f2ij,4,Trade_ends,2021-11-17 17:36:38.159676+00:00,"{""currentPrice"": 18, ""priceIndex"": 8, ""secs_since_round_starts"": 18}",True,0.02,False,18.0,10.0,30.0,18,8,18,2.0,0,1,0,0,1,1,Female,55.0,undergraduate: 2nd year,6,6,Finance,0.0,1.0,0.0,Less than once a month,Weekly,Stocks,No,GB,1000,1000.0
232,c8pbk5uk,tcbozsj9,7,Trade_ends,2021-11-17 17:36:39.426407+00:00,"{""currentPrice"": 0, ""priceIndex"": 2, ""secs_since_round_starts"": 4}",False,0.02,False,0.0,10.0,30.0,0,2,4,2.0,1,0,0,0,1,1,Male,41.0,master,8,8,Other,0.0,1.0,1.0,Monthly,Weekly,Stocks,No,GB,4,0.0
233,2yc2dnx4,xm39f2ij,8,Trade_ends,2021-11-17 17:36:44.383067+00:00,"{""currentPrice"": 25, ""priceIndex"": 16, ""secs_since_round_starts"": 33}",True,0.05,False,25.0,10.0,30.0,25,16,33,2.0,0,1,0,0,1,0,Female,38.0,undergraduate: 4th year,10,10,Finance,1.0,1.0,0.0,Daily,Daily,Stocks,No,CA,1000,1000.0
234,stvlmepj,tcbozsj9,4,Trade_ends,2021-11-17 17:36:44.580970+00:00,"{""currentPrice"": 26, ""priceIndex"": 17, ""secs_since_round_starts"": 46}",False,0.02,False,26.0,10.0,30.0,26,17,46,2.0,0,1,0,1,1,0,Female,24.0,master,35,9,Economics,1.0,1.0,1.0,Weekly,Daily,Bonds,No,CN,1000,1000.0
235,ns6o6iog,xm39f2ij,5,Trade_ends,2021-11-17 17:36:51.373671+00:00,"{""currentPrice"": 0, ""priceIndex"": 27, ""secs_since_round_starts"": 54}",False,0.05,False,0.0,10.0,30.0,0,27,54,2.0,1,0,0,0,1,0,Female,36.0,high-school graduate,44,7,Other,0.0,1.0,0.0,Monthly,Monthly,Stocks,No,GB,54,0.0
236,g55an9bs,tcbozsj9,7,Trade_ends,2021-11-17 17:36:52.910498+00:00,"{""currentPrice"": 15, ""priceIndex"": 5, ""secs_since_round_starts"": 12}",False,0.02,False,15.0,10.0,30.0,15,5,12,2.0,0,1,0,0,1,1,Female,44.0,undergraduate: 4th year,22,7,Other Management,0.0,0.0,0.0,Less than once a month,Less than once a month,Stocks,No,GB,1000,1000.0
237,0r2yaece,xm39f2ij,5,Trade_ends,2021-11-17 17:37:00.359583+00:00,"{""currentPrice"": 0, ""priceIndex"": 9, ""secs_since_round_starts"": 18}",True,0.05,False,0.0,10.0,30.0,0,9,18,2.0,1,0,0,0,1,1,Female,55.0,undergraduate: 2nd year,6,6,Finance,0.0,1.0,0.0,Less than once a month,Weekly,Stocks,No,GB,18,0.0
238,te4hnjkl,tcbozsj9,4,Trade_ends,2021-11-17 17:37:01.588540+00:00,"{""currentPrice"": 26, ""priceIndex"": 12, ""secs_since_round_starts"": 25}",True,0.02,False,26.0,10.0,30.0,26,12,25,2.0,0,1,0,0,1,1,Male,39.0,master,26,6,Other,0.0,1.0,1.0,Monthly,Weekly,Stocks,No,GB,1000,1000.0
239,stvlmepj,tcbozsj9,5,Trade_ends,2021-11-17 17:37:02.447001+00:00,"{""currentPrice"": 17, ""priceIndex"": 6, ""secs_since_round_starts"": 14}",False,0.05,False,17.0,10.0,30.0,17,6,14,2.0,0,1,0,0,1,0,Female,24.0,master,35,9,Economics,1.0,1.0,1.0,Weekly,Daily,Bonds,No,CN,1000,1000.0
240,inxcivkq,tcbozsj9,2,Trade_ends,2021-11-17 17:37:04.339562+00:00,"{""currentPrice"": 41, ""priceIndex"": 30, ""secs_since_round_starts"": 60}",False,0.02,False,41.0,10.0,30.0,41,30,60,2.0,0,0,1,0,1,0,Female,34.0,master,9,9,Economics,1.0,0.0,0.0,Less than once a month,Less than once a month,Cryptocurrencies,No,MX,60,1000.0
241,n779o0ut,xm39f2ij,8,Trade_ends,2021-11-17 17:37:07.881426+00:00,"{""currentPrice"": 17, ""priceIndex"": 14, ""secs_since_round_starts"": 30}",False,0.05,False,17.0,10.0,30.0,17,14,30,2.0,0,1,0,0,1,1,Female,37.0,undergraduate: 3d year,25,9,Other,0.0,1.0,0.0,Less than once a month,Daily,Stocks,No,GB,1000,1000.0
242,c8pbk5uk,tcbozsj9,8,Trade_ends,2021-11-17 17:37:09.171810+00:00,"{""currentPrice"": 0, ""priceIndex"": 12, ""secs_since_round_starts"": 24}",False,0.05,False,0.0,10.0,30.0,0,12,24,2.0,1,0,0,0,1,1,Male,41.0,master,8,8,Other,0.0,1.0,1.0,Monthly,Weekly,Stocks,No,GB,24,0.0
243,g55an9bs,tcbozsj9,8,Trade_ends,2021-11-17 17:37:10.987099+00:00,"{""currentPrice"": 16, ""priceIndex"": 6, ""secs_since_round_starts"": 14}",False,0.05,False,16.0,10.0,30.0,16,6,14,2.0,0,1,0,0,1,1,Female,44.0,undergraduate: 4th year,22,7,Other Management,0.0,0.0,0.0,Less than once a month,Less than once a month,Stocks,No,GB,1000,1000.0
244,0r2yaece,xm39f2ij,6,Trade_ends,2021-11-17 17:37:17.334197+00:00,"{""currentPrice"": 19, ""priceIndex"": 5, ""secs_since_round_starts"": 12}",False,0.05,False,19.0,10.0,30.0,19,5,12,2.0,0,1,0,0,1,1,Female,55.0,undergraduate: 2nd year,6,6,Finance,0.0,1.0,0.0,Less than once a month,Weekly,Stocks,No,GB,1000,1000.0
245,stvlmepj,tcbozsj9,6,Trade_ends,2021-11-17 17:37:19.864311+00:00,"{""currentPrice"": 0, ""priceIndex"": 7, ""secs_since_round_starts"": 14}",True,0.05,False,0.0,10.0,30.0,0,7,14,2.0,1,0,0,0,1,0,Female,24.0,master,35,9,Economics,1.0,1.0,1.0,Weekly,Daily,Bonds,No,CN,14,0.0
246,2yc2dnx4,xm39f2ij,9,Trade_ends,2021-11-17 17:37:21.559277+00:00,"{""currentPrice"": 0, ""priceIndex"": 17, ""secs_since_round_starts"": 34}",True,0.02,False,0.0,10.0,30.0,0,17,34,2.0,1,0,0,0,1,0,Female,38.0,undergraduate: 4th year,10,10,Finance,1.0,1.0,0.0,Daily,Daily,Stocks,No,CA,34,0.0
247,c8pbk5uk,tcbozsj9,9,Trade_ends,2021-11-17 17:37:23.586803+00:00,"{""currentPrice"": 0, ""priceIndex"": 5, ""secs_since_round_starts"": 10}",False,0.02,False,0.0,10.0,30.0,0,5,10,2.0,1,0,0,0,1,1,Male,41.0,master,8,8,Other,0.0,1.0,1.0,Monthly,Weekly,Stocks,No,GB,10,0.0
248,g55an9bs,tcbozsj9,9,Trade_ends,2021-11-17 17:37:29.357452+00:00,"{""currentPrice"": 19, ""priceIndex"": 6, ""secs_since_round_starts"": 14}",False,0.02,False,19.0,10.0,30.0,19,6,14,2.0,0,1,0,0,1,1,Female,44.0,undergraduate: 4th year,22,7,Other Management,0.0,0.0,0.0,Less than once a month,Less than once a month,Stocks,No,GB,1000,1000.0
249,te4hnjkl,tcbozsj9,5,Trade_ends,2021-11-17 17:37:36.907479+00:00,"{""currentPrice"": 0, ""priceIndex"": 10, ""secs_since_round_starts"": 20}",True,0.05,False,0.0,10.0,30.0,0,10,20,2.0,1,0,0,0,1,1,Male,39.0,master,26,6,Other,0.0,1.0,1.0,Monthly,Weekly,Stocks,No,GB,20,0.0
250,0r2yaece,xm39f2ij,7,Trade_ends,2021-11-17 17:37:37.726472+00:00,"{""currentPrice"": 19, ""priceIndex"": 7, ""secs_since_round_starts"": 16}",False,0.02,False,19.0,10.0,30.0,19,7,16,2.0,0,1,0,0,1,1,Female,55.0,undergraduate: 2nd year,6,6,Finance,0.0,1.0,0.0,Less than once a month,Weekly,Stocks,No,GB,1000,1000.0
251,yahu2to0,tcbozsj9,2,Trade_ends,2021-11-17 17:37:41.869590+00:00,"{""currentPrice"": 35, ""priceIndex"": 23, ""secs_since_round_starts"": 51}",True,0.02,False,35.0,10.0,30.0,35,23,51,2.0,0,1,0,0,1,1,Male,34.0,master,36,6,Other,0.0,0.0,0.0,Less than once a month,Less than once a month,Bonds,No,CA,1000,1000.0
252,stvlmepj,tcbozsj9,7,Trade_ends,2021-11-17 17:37:42.116324+00:00,"{""currentPrice"": 17, ""priceIndex"": 7, ""secs_since_round_starts"": 17}",True,0.02,False,17.0,10.0,30.0,17,7,17,2.0,0,1,0,0,1,0,Female,24.0,master,35,9,Economics,1.0,1.0,1.0,Weekly,Daily,Bonds,No,CN,1000,1000.0
253,0r2yaece,xm39f2ij,8,Trade_ends,2021-11-17 17:37:43.479024+00:00,"{""currentPrice"": 0, ""priceIndex"": 1, ""secs_since_round_starts"": 2}",False,0.05,False,0.0,10.0,30.0,0,1,2,2.0,1,0,0,0,1,1,Female,55.0,undergraduate: 2nd year,6,6,Finance,0.0,1.0,0.0,Less than once a month,Weekly,Stocks,No,GB,2,0.0
254,n779o0ut,xm39f2ij,9,Trade_ends,2021-11-17 17:37:44.302595+00:00,"{""currentPrice"": 20, ""priceIndex"": 14, ""secs_since_round_starts"": 31}",False,0.02,False,20.0,10.0,30.0,20,14,31,2.0,0,1,0,0,1,1,Female,37.0,undergraduate: 3d year,25,9,Other,0.0,1.0,0.0,Less than once a month,Daily,Stocks,No,GB,1000,1000.0
255,ujvcyj22,xm39f2ij,2,Trade_ends,2021-11-17 17:37:47.126021+00:00,"{""currentPrice"": 0, ""priceIndex"": 8, ""secs_since_round_starts"": 16}",False,0.02,False,0.0,10.0,30.0,0,8,16,2.0,1,0,0,0,1,0,Female,57.0,undergraduate: 4th year,30,10,Other,0.0,0.0,0.0,Less than once a month,Less than once a month,Bonds,No,GB,16,0.0
256,ns6o6iog,xm39f2ij,6,Trade_ends,2021-11-17 17:37:47.651397+00:00,"{""currentPrice"": 0, ""priceIndex"": 23, ""secs_since_round_starts"": 46}",True,0.05,False,0.0,10.0,30.0,0,23,46,2.0,1,0,0,0,1,0,Female,36.0,high-school graduate,44,7,Other,0.0,1.0,0.0,Monthly,Monthly,Stocks,No,GB,46,0.0
257,7bvk886t,xm39f2ij,2,Trade_ends,2021-11-17 17:37:51.344041+00:00,"{""currentPrice"": 11, ""priceIndex"": 2, ""secs_since_round_starts"": 7}",False,0.02,False,11.0,10.0,30.0,11,2,7,2.0,0,1,0,0,1,0,Female,56.0,undergraduate: 3d year,20,8,Other Management,0.0,1.0,0.0,Less than once a month,Less than once a month,Stocks,No,GB,1000,1000.0
258,te4hnjkl,tcbozsj9,6,Trade_ends,2021-11-17 17:37:52.938826+00:00,"{""currentPrice"": 0, ""priceIndex"": 5, ""secs_since_round_starts"": 10}",False,0.05,False,0.0,10.0,30.0,0,5,10,2.0,1,0,0,0,1,1,Male,39.0,master,26,6,Other,0.0,1.0,1.0,Monthly,Weekly,Stocks,No,GB,10,0.0
259,c791yh5e,xm39f2ij,2,Trade_ends,2021-11-17 17:37:53.448843+00:00,"{""currentPrice"": 18, ""priceIndex"": 8, ""secs_since_round_starts"": 20}",True,0.02,False,18.0,10.0,30.0,18,8,20,2.0,0,1,0,0,1,1,Female,55.0,undergraduate: 3d year,25,8,Other,0.0,0.0,0.0,Less than once a month,Monthly,Stocks,No,GB,1000,1000.0
260,stvlmepj,tcbozsj9,8,Trade_ends,2021-11-17 17:38:02.113528+00:00,"{""currentPrice"": 16, ""priceIndex"": 7, ""secs_since_round_starts"": 16}",True,0.05,False,16.0,10.0,30.0,16,7,16,2.0,0,1,0,0,1,0,Female,24.0,master,35,9,Economics,1.0,1.0,1.0,Weekly,Daily,Bonds,No,CN,1000,1000.0
261,7bvk886t,xm39f2ij,3,Trade_ends,2021-11-17 17:38:02.348503+00:00,"{""currentPrice"": 11, ""priceIndex"": 1, ""secs_since_round_starts"": 5}",False,0.05,False,11.0,10.0,30.0,11,1,5,2.0,0,1,0,0,1,0,Female,56.0,undergraduate: 3d year,20,8,Other Management,0.0,1.0,0.0,Less than once a month,Less than once a month,Stocks,No,GB,1000,1000.0
262,ius3yrmf,tcbozsj9,2,Trade_ends,2021-11-17 17:38:03.956890+00:00,"{""currentPrice"": 40, ""priceIndex"": 30, ""secs_since_round_starts"": 60}",False,0.02,False,40.0,10.0,30.0,40,30,60,2.0,0,0,1,0,1,0,Female,33.0,MBA,43,7,Finance,1.0,0.0,0.0,Less than once a month,Less than once a month,Stocks,No,US,60,1000.0
263,ttx727wz,tcbozsj9,2,Trade_ends,2021-11-17 17:38:05.378885+00:00,"{""currentPrice"": 46, ""priceIndex"": 29, ""secs_since_round_starts"": 60}",False,0.02,False,46.0,10.0,30.0,46,29,60,2.0,0,1,0,0,1,0,Male,36.0,master,6,6,Other,0.0,1.0,1.0,Less than once a month,Monthly,Cryptocurrencies,No,GB,1000,1000.0
264,ujvcyj22,xm39f2ij,3,Trade_ends,2021-11-17 17:38:09.736008+00:00,"{""currentPrice"": 16, ""priceIndex"": 7, ""secs_since_round_starts"": 16}",False,0.05,False,16.0,10.0,30.0,16,7,16,2.0,0,1,0,0,1,0,Female,57.0,undergraduate: 4th year,30,10,Other,0.0,0.0,0.0,Less than once a month,Less than once a month,Bonds,No,GB,1000,1000.0
265,inxcivkq,tcbozsj9,3,Trade_ends,2021-11-17 17:38:11.042741+00:00,"{""currentPrice"": 44, ""priceIndex"": 30, ""secs_since_round_starts"": 60}",False,0.05,False,44.0,10.0,30.0,44,30,60,2.0,0,0,1,0,1,0,Female,34.0,master,9,9,Economics,1.0,0.0,0.0,Less than once a month,Less than once a month,Cryptocurrencies,No,MX,60,1000.0
266,yahu2to0,tcbozsj9,3,Trade_ends,2021-11-17 17:38:12.645892+00:00,"{""currentPrice"": 24, ""priceIndex"": 12, ""secs_since_round_starts"": 26}",True,0.05,False,24.0,10.0,30.0,24,12,26,2.0,0,1,0,0,1,1,Male,34.0,master,36,6,Other,0.0,0.0,0.0,Less than once a month,Less than once a month,Bonds,No,CA,1000,1000.0
267,7bvk886t,xm39f2ij,4,Trade_ends,2021-11-17 17:38:13.285683+00:00,"{""currentPrice"": 12, ""priceIndex"": 1, ""secs_since_round_starts"": 5}",False,0.02,False,12.0,10.0,30.0,12,1,5,2.0,0,1,0,0,1,0,Female,56.0,undergraduate: 3d year,20,8,Other Management,0.0,1.0,0.0,Less than once a month,Less than once a month,Stocks,No,GB,1000,1000.0
268,ns6o6iog,xm39f2ij,7,Trade_ends,2021-11-17 17:38:15.432140+00:00,"{""currentPrice"": 20, ""priceIndex"": 9, ""secs_since_round_starts"": 20}",True,0.02,False,20.0,10.0,30.0,20,9,20,2.0,0,1,0,0,1,0,Female,36.0,high-school graduate,44,7,Other,0.0,1.0,0.0,Monthly,Monthly,Stocks,No,GB,1000,1000.0
269,0r2yaece,xm39f2ij,9,Trade_ends,2021-11-17 17:38:15.720092+00:00,"{""currentPrice"": 19, ""priceIndex"": 9, ""secs_since_round_starts"": 26}",False,0.02,False,19.0,10.0,30.0,19,9,26,2.0,0,1,0,1,1,1,Female,55.0,undergraduate: 2nd year,6,6,Finance,0.0,1.0,0.0,Less than once a month,Weekly,Stocks,No,GB,1000,1000.0
270,c791yh5e,xm39f2ij,3,Trade_ends,2021-11-17 17:38:17.796792+00:00,"{""currentPrice"": 17, ""priceIndex"": 8, ""secs_since_round_starts"": 20}",True,0.05,False,17.0,10.0,30.0,17,8,20,2.0,0,1,0,0,1,1,Female,55.0,undergraduate: 3d year,25,8,Other,0.0,0.0,0.0,Less than once a month,Monthly,Stocks,No,GB,1000,1000.0
271,7bvk886t,xm39f2ij,5,Trade_ends,2021-11-17 17:38:26.158338+00:00,"{""currentPrice"": 13, ""priceIndex"": 2, ""secs_since_round_starts"": 6}",False,0.05,False,13.0,10.0,30.0,13,2,6,2.0,0,1,0,0,1,0,Female,56.0,undergraduate: 3d year,20,8,Other Management,0.0,1.0,0.0,Less than once a month,Less than once a month,Stocks,No,GB,1000,1000.0
272,te4hnjkl,tcbozsj9,7,Trade_ends,2021-11-17 17:38:26.502766+00:00,"{""currentPrice"": 21, ""priceIndex"": 14, ""secs_since_round_starts"": 30}",False,0.02,False,21.0,10.0,30.0,21,14,30,2.0,0,1,0,0,1,1,Male,39.0,master,26,6,Other,0.0,1.0,1.0,Monthly,Weekly,Stocks,No,GB,1000,1000.0
273,75fuigmd,tcbozsj9,2,Trade_ends,2021-11-17 17:38:32.902422+00:00,"{""currentPrice"": 0, ""priceIndex"": 3, ""secs_since_round_starts"": 6}",False,0.02,False,0.0,10.0,30.0,0,3,6,2.0,1,0,0,0,1,0,Female,23.0,master,8,8,Other,0.0,1.0,1.0,Weekly,Daily,Stocks,No,GB,6,0.0
274,y1x26c8c,xm39f2ij,2,Trade_ends,2021-11-17 17:38:33.996589+00:00,"{""currentPrice"": 0, ""priceIndex"": 25, ""secs_since_round_starts"": 50}",False,0.02,False,0.0,10.0,30.0,0,25,50,2.0,1,0,0,0,1,0,Female,24.0,high-school graduate,43,7,Other,0.0,1.0,1.0,Monthly,Weekly,Stocks,Do not know,GB,50,0.0
275,stvlmepj,tcbozsj9,9,Trade_ends,2021-11-17 17:38:36.655617+00:00,"{""currentPrice"": 23, ""priceIndex"": 15, ""secs_since_round_starts"": 31}",True,0.02,False,23.0,10.0,30.0,23,15,31,2.0,0,1,0,0,1,0,Female,24.0,master,35,9,Economics,1.0,1.0,1.0,Weekly,Daily,Bonds,No,CN,1000,1000.0
276,7bvk886t,xm39f2ij,6,Trade_ends,2021-11-17 17:38:39.328925+00:00,"{""currentPrice"": 14, ""priceIndex"": 2, ""secs_since_round_starts"": 8}",True,0.05,False,14.0,10.0,30.0,14,2,8,2.0,0,1,0,0,1,0,Female,56.0,undergraduate: 3d year,20,8,Other Management,0.0,1.0,0.0,Less than once a month,Less than once a month,Stocks,No,GB,1000,1000.0
277,z1oj5dsd,xm39f2ij,2,Trade_ends,2021-11-17 17:38:39.650762+00:00,"{""currentPrice"": 21, ""priceIndex"": 12, ""secs_since_round_starts"": 28}",True,0.02,False,21.0,10.0,30.0,21,12,28,2.0,0,1,0,0,1,1,Male,62.0,undergraduate: 4th year,35,8,Economics,0.0,1.0,0.0,Weekly,Multiple times a day,Stocks,Yes,GB,1000,1000.0
278,ujvcyj22,xm39f2ij,4,Trade_ends,2021-11-17 17:38:40.913550+00:00,"{""currentPrice"": 20, ""priceIndex"": 12, ""secs_since_round_starts"": 26}",False,0.02,False,20.0,10.0,30.0,20,12,26,2.0,0,1,0,0,1,0,Female,57.0,undergraduate: 4th year,30,10,Other,0.0,0.0,0.0,Less than once a month,Less than once a month,Bonds,No,GB,1000,1000.0
279,ns6o6iog,xm39f2ij,8,Trade_ends,2021-11-17 17:38:42.617680+00:00,"{""currentPrice"": 0, ""priceIndex"": 11, ""secs_since_round_starts"": 22}",True,0.05,False,0.0,10.0,30.0,0,11,22,2.0,1,0,0,0,1,0,Female,36.0,high-school graduate,44,7,Other,0.0,1.0,0.0,Monthly,Monthly,Stocks,No,GB,22,0.0
280,ttx727wz,tcbozsj9,3,Trade_ends,2021-11-17 17:38:44.429425+00:00,"{""currentPrice"": 0, ""priceIndex"": 17, ""secs_since_round_starts"": 34}",False,0.05,False,0.0,10.0,30.0,0,17,34,2.0,1,0,0,0,1,0,Male,36.0,master,6,6,Other,0.0,1.0,1.0,Less than once a month,Monthly,Cryptocurrencies,No,GB,34,0.0
281,75fuigmd,tcbozsj9,3,Trade_ends,2021-11-17 17:38:44.493011+00:00,"{""currentPrice"": 0, ""priceIndex"": 3, ""secs_since_round_starts"": 6}",False,0.05,False,0.0,10.0,30.0,0,3,6,2.0,1,0,0,0,1,0,Female,23.0,master,8,8,Other,0.0,1.0,1.0,Weekly,Daily,Stocks,No,GB,6,0.0
282,c791yh5e,xm39f2ij,4,Trade_ends,2021-11-17 17:38:50.309769+00:00,"{""currentPrice"": 0, ""priceIndex"": 14, ""secs_since_round_starts"": 28}",True,0.02,False,0.0,10.0,30.0,0,14,28,2.0,1,0,0,0,1,1,Female,55.0,undergraduate: 3d year,25,8,Other,0.0,0.0,0.0,Less than once a month,Monthly,Stocks,No,GB,28,0.0
283,7bvk886t,xm39f2ij,7,Trade_ends,2021-11-17 17:38:51.641799+00:00,"{""currentPrice"": 12, ""priceIndex"": 2, ""secs_since_round_starts"": 7}",True,0.02,False,12.0,10.0,30.0,12,2,7,2.0,0,1,0,0,1,0,Female,56.0,undergraduate: 3d year,20,8,Other Management,0.0,1.0,0.0,Less than once a month,Less than once a month,Stocks,No,GB,1000,1000.0
284,ius3yrmf,tcbozsj9,3,Trade_ends,2021-11-17 17:38:54.806882+00:00,"{""currentPrice"": 0, ""priceIndex"": 21, ""secs_since_round_starts"": 42}",False,0.05,False,0.0,10.0,30.0,0,21,42,2.0,1,0,0,0,1,0,Female,33.0,MBA,43,7,Finance,1.0,0.0,0.0,Less than once a month,Less than once a month,Stocks,No,US,42,0.0
285,ujvcyj22,xm39f2ij,5,Trade_ends,2021-11-17 17:38:58.651217+00:00,"{""currentPrice"": 0, ""priceIndex"": 7, ""secs_since_round_starts"": 14}",False,0.05,False,0.0,10.0,30.0,0,7,14,2.0,1,0,0,0,1,0,Female,57.0,undergraduate: 4th year,30,10,Other,0.0,0.0,0.0,Less than once a month,Less than once a month,Bonds,No,GB,14,0.0
286,75fuigmd,tcbozsj9,4,Trade_ends,2021-11-17 17:38:58.700254+00:00,"{""currentPrice"": 12, ""priceIndex"": 4, ""secs_since_round_starts"": 10}",False,0.02,False,12.0,10.0,30.0,12,4,10,2.0,0,1,0,0,1,0,Female,23.0,master,8,8,Other,0.0,1.0,1.0,Weekly,Daily,Stocks,No,GB,1000,1000.0
287,u42h5vwr,xm39f2ij,2,Trade_ends,2021-11-17 17:39:00.518236+00:00,"{""currentPrice"": 16, ""priceIndex"": 5, ""secs_since_round_starts"": 12}",False,0.02,False,16.0,10.0,30.0,16,5,12,2.0,0,1,0,0,1,0,Male,36.0,undergraduate: 4th year,9,9,Other,1.0,1.0,1.0,Weekly,Daily,Stocks,No,GB,1000,1000.0
288,7bvk886t,xm39f2ij,8,Trade_ends,2021-11-17 17:39:03.633357+00:00,"{""currentPrice"": 12, ""priceIndex"": 2, ""secs_since_round_starts"": 7}",True,0.05,False,12.0,10.0,30.0,12,2,7,2.0,0,1,0,0,1,0,Female,56.0,undergraduate: 3d year,20,8,Other Management,0.0,1.0,0.0,Less than once a month,Less than once a month,Stocks,No,GB,1000,1000.0
289,75fuigmd,tcbozsj9,5,Trade_ends,2021-11-17 17:39:05.529108+00:00,"{""currentPrice"": 12, ""priceIndex"": 1, ""secs_since_round_starts"": 4}",False,0.05,False,12.0,10.0,30.0,12,1,4,2.0,0,1,0,0,1,0,Female,23.0,master,8,8,Other,0.0,1.0,1.0,Weekly,Daily,Stocks,No,GB,1000,1000.0
290,c791yh5e,xm39f2ij,5,Trade_ends,2021-11-17 17:39:06.173002+00:00,"{""currentPrice"": 15, ""priceIndex"": 4, ""secs_since_round_starts"": 10}",True,0.05,False,15.0,10.0,30.0,15,4,10,2.0,0,1,0,0,1,1,Female,55.0,undergraduate: 3d year,25,8,Other,0.0,0.0,0.0,Less than once a month,Monthly,Stocks,No,GB,1000,1000.0
291,qujsnwkv,xm39f2ij,2,Trade_ends,2021-11-17 17:39:08.089649+00:00,"{""currentPrice"": 43, ""priceIndex"": 30, ""secs_since_round_starts"": 60}",False,0.02,False,43.0,10.0,30.0,43,30,60,2.0,0,0,1,0,1,0,Female,42.0,high-school graduate,7,7,Other,0.0,0.0,0.0,Less than once a month,Less than once a month,Stocks,Do not know,GB,60,1000.0
292,yahu2to0,tcbozsj9,4,Trade_ends,2021-11-17 17:39:15.204472+00:00,"{""currentPrice"": 41, ""priceIndex"": 28, ""secs_since_round_starts"": 59}",True,0.02,False,41.0,10.0,30.0,41,28,59,2.0,0,1,0,0,1,1,Male,34.0,master,36,6,Other,0.0,0.0,0.0,Less than once a month,Less than once a month,Bonds,No,CA,1000,1000.0
293,ns6o6iog,xm39f2ij,9,Trade_ends,2021-11-17 17:39:16.318573+00:00,"{""currentPrice"": 24, ""priceIndex"": 12, ""secs_since_round_starts"": 26}",True,0.02,False,24.0,10.0,30.0,24,12,26,2.0,0,1,0,0,1,0,Female,36.0,high-school graduate,44,7,Other,0.0,1.0,0.0,Monthly,Monthly,Stocks,No,GB,1000,1000.0
294,te4hnjkl,tcbozsj9,8,Trade_ends,2021-11-17 17:39:16.703843+00:00,"{""currentPrice"": 16, ""priceIndex"": 8, ""secs_since_round_starts"": 18}",False,0.05,False,16.0,10.0,30.0,16,8,18,2.0,0,1,0,0,1,1,Male,39.0,master,26,6,Other,0.0,1.0,1.0,Monthly,Weekly,Stocks,No,GB,1000,1000.0
295,z1oj5dsd,xm39f2ij,3,Trade_ends,2021-11-17 17:39:17.006734+00:00,"{""currentPrice"": 26, ""priceIndex"": 13, ""secs_since_round_starts"": 30}",True,0.05,False,26.0,10.0,30.0,26,13,30,2.0,0,1,0,0,1,1,Male,62.0,undergraduate: 4th year,35,8,Economics,0.0,1.0,0.0,Weekly,Multiple times a day,Stocks,Yes,GB,1000,1000.0
296,7bvk886t,xm39f2ij,9,Trade_ends,2021-11-17 17:39:18.696588+00:00,"{""currentPrice"": 13, ""priceIndex"": 3, ""secs_since_round_starts"": 9}",True,0.02,False,13.0,10.0,30.0,13,3,9,2.0,0,1,0,0,1,0,Female,56.0,undergraduate: 3d year,20,8,Other Management,0.0,1.0,0.0,Less than once a month,Less than once a month,Stocks,No,GB,1000,1000.0
297,75fuigmd,tcbozsj9,6,Trade_ends,2021-11-17 17:39:19.206788+00:00,"{""currentPrice"": 17, ""priceIndex"": 4, ""secs_since_round_starts"": 10}",True,0.05,False,17.0,10.0,30.0,17,4,10,2.0,0,1,0,0,1,0,Female,23.0,master,8,8,Other,0.0,1.0,1.0,Weekly,Daily,Stocks,No,GB,1000,1000.0
298,inxcivkq,tcbozsj9,4,Trade_ends,2021-11-17 17:39:19.364889+00:00,"{""currentPrice"": 40, ""priceIndex"": 30, ""secs_since_round_starts"": 60}",False,0.02,False,40.0,10.0,30.0,40,30,60,2.0,0,0,1,0,1,0,Female,34.0,master,9,9,Economics,1.0,0.0,0.0,Less than once a month,Less than once a month,Cryptocurrencies,No,MX,60,1000.0
299,u42h5vwr,xm39f2ij,3,Trade_ends,2021-11-17 17:39:21.385201+00:00,"{""currentPrice"": 0, ""priceIndex"": 7, ""secs_since_round_starts"": 14}",False,0.05,False,0.0,10.0,30.0,0,7,14,2.0,1,0,0,0,1,0,Male,36.0,undergraduate: 4th year,9,9,Other,1.0,1.0,1.0,Weekly,Daily,Stocks,No,GB,14,0.0
300,c791yh5e,xm39f2ij,6,Trade_ends,2021-11-17 17:39:23.530507+00:00,"{""currentPrice"": 16, ""priceIndex"": 5, ""secs_since_round_starts"": 13}",False,0.05,False,16.0,10.0,30.0,16,5,13,2.0,0,1,0,0,1,1,Female,55.0,undergraduate: 3d year,25,8,Other,0.0,0.0,0.0,Less than once a month,Monthly,Stocks,No,GB,1000,1000.0
301,ujvcyj22,xm39f2ij,6,Trade_ends,2021-11-17 17:39:26.245999+00:00,"{""currentPrice"": 19, ""priceIndex"": 8, ""secs_since_round_starts"": 22}",True,0.05,False,19.0,10.0,30.0,19,8,22,2.0,0,1,0,0,1,0,Female,57.0,undergraduate: 4th year,30,10,Other,0.0,0.0,0.0,Less than once a month,Less than once a month,Bonds,No,GB,1000,1000.0
302,ttx727wz,tcbozsj9,4,Trade_ends,2021-11-17 17:39:30.442765+00:00,"{""currentPrice"": 31, ""priceIndex"": 19, ""secs_since_round_starts"": 39}",False,0.02,False,31.0,10.0,30.0,31,19,39,2.0,0,1,0,0,1,0,Male,36.0,master,6,6,Other,0.0,1.0,1.0,Less than once a month,Monthly,Cryptocurrencies,No,GB,1000,1000.0
303,y1x26c8c,xm39f2ij,3,Trade_ends,2021-11-17 17:39:32.042885+00:00,"{""currentPrice"": 36, ""priceIndex"": 21, ""secs_since_round_starts"": 47}",False,0.05,False,36.0,10.0,30.0,36,21,47,2.0,0,1,0,2,1,0,Female,24.0,high-school graduate,43,7,Other,0.0,1.0,1.0,Monthly,Weekly,Stocks,Do not know,GB,1000,1000.0
304,wegg1qp3,xm39f2ij,2,Trade_ends,2021-11-17 17:39:35.396719+00:00,"{""currentPrice"": 34, ""priceIndex"": 30, ""secs_since_round_starts"": 60}",True,0.02,False,34.0,10.0,30.0,34,30,60,2.0,0,0,1,0,1,1,Female,45.0,undergraduate: 4th year,37,2,Other,1.0,1.0,1.0,Monthly,Monthly,Stocks,No,GB,60,1000.0
305,75fuigmd,tcbozsj9,7,Trade_ends,2021-11-17 17:39:40.703006+00:00,"{""currentPrice"": 23, ""priceIndex"": 8, ""secs_since_round_starts"": 18}",True,0.02,False,23.0,10.0,30.0,23,8,18,2.0,0,1,0,0,1,0,Female,23.0,master,8,8,Other,0.0,1.0,1.0,Weekly,Daily,Stocks,No,GB,1000,1000.0
306,ipnt2h1h,xm39f2ij,2,Trade_ends,2021-11-17 17:39:42.734914+00:00,"{""currentPrice"": 28, ""priceIndex"": 18, ""secs_since_round_starts"": 39}",False,0.02,False,28.0,10.0,30.0,28,18,39,2.0,0,1,0,0,1,0,Female,42.0,undergraduate: 3d year,8,8,Other,0.0,0.0,0.0,Less than once a month,Less than once a month,"Derivatives (Options, Futures)",Do not know,GB,1000,1000.0
307,u42h5vwr,xm39f2ij,4,Trade_ends,2021-11-17 17:39:44.003783+00:00,"{""currentPrice"": 20, ""priceIndex"": 7, ""secs_since_round_starts"": 16}",False,0.02,False,20.0,10.0,30.0,20,7,16,2.0,0,1,0,0,1,0,Male,36.0,undergraduate: 4th year,9,9,Other,1.0,1.0,1.0,Weekly,Daily,Stocks,No,GB,1000,1000.0
308,c791yh5e,xm39f2ij,7,Trade_ends,2021-11-17 17:39:45.417648+00:00,"{""currentPrice"": 17, ""priceIndex"": 7, ""secs_since_round_starts"": 17}",False,0.02,False,17.0,10.0,30.0,17,7,17,2.0,0,1,0,0,1,1,Female,55.0,undergraduate: 3d year,25,8,Other,0.0,0.0,0.0,Less than once a month,Monthly,Stocks,No,GB,1000,1000.0
309,1ji0cvtf,xm39f2ij,2,Trade_ends,2021-11-17 17:39:45.872474+00:00,"{""currentPrice"": 22, ""priceIndex"": 13, ""secs_since_round_starts"": 27}",True,0.02,False,22.0,10.0,30.0,22,13,27,2.0,0,1,0,0,1,1,Male,25.0,undergraduate: 4th year,29,9,Other,0.0,1.0,1.0,Monthly,Weekly,Stocks,No,CA,1000,1000.0
310,z1oj5dsd,xm39f2ij,4,Trade_ends,2021-11-17 17:39:47.301373+00:00,"{""currentPrice"": 21, ""priceIndex"": 9, ""secs_since_round_starts"": 22}",True,0.02,False,21.0,10.0,30.0,21,9,22,2.0,0,1,0,0,1,1,Male,62.0,undergraduate: 4th year,35,8,Economics,0.0,1.0,0.0,Weekly,Multiple times a day,Stocks,Yes,GB,1000,1000.0
311,75fuigmd,tcbozsj9,8,Trade_ends,2021-11-17 17:39:52.461477+00:00,"{""currentPrice"": 15, ""priceIndex"": 3, ""secs_since_round_starts"": 8}",True,0.05,False,15.0,10.0,30.0,15,3,8,2.0,0,1,0,0,1,0,Female,23.0,master,8,8,Other,0.0,1.0,1.0,Weekly,Daily,Stocks,No,GB,1000,1000.0
312,04kq5q2m,xm39f2ij,2,Trade_ends,2021-11-17 17:39:55.945238+00:00,"{""currentPrice"": 0, ""priceIndex"": 3, ""secs_since_round_starts"": 6}",False,0.02,False,0.0,10.0,30.0,0,3,6,2.0,1,0,0,0,1,0,Female,39.0,high-school graduate,8,8,Other,0.0,0.0,0.0,Less than once a month,Less than once a month,Stocks,No,GB,6,0.0
313,ttx727wz,tcbozsj9,5,Trade_ends,2021-11-17 17:39:56.497800+00:00,"{""currentPrice"": 0, ""priceIndex"": 11, ""secs_since_round_starts"": 22}",False,0.05,False,0.0,10.0,30.0,0,11,22,2.0,1,0,0,0,1,0,Male,36.0,master,6,6,Other,0.0,1.0,1.0,Less than once a month,Monthly,Cryptocurrencies,No,GB,22,0.0
314,vyq8om63,xm39f2ij,2,Trade_ends,2021-11-17 17:39:56.660154+00:00,"{""currentPrice"": 0, ""priceIndex"": 1, ""secs_since_round_starts"": 2}",False,0.02,False,0.0,10.0,30.0,0,1,2,2.0,1,0,0,0,1,0,Male,64.0,high-school graduate,5,5,Other,0.0,0.0,0.0,Less than once a month,Less than once a month,Stocks,No,GB,2,0.0
315,ujvcyj22,xm39f2ij,7,Trade_ends,2021-11-17 17:39:57.439378+00:00,"{""currentPrice"": 18, ""priceIndex"": 12, ""secs_since_round_starts"": 26}",True,0.02,False,18.0,10.0,30.0,18,12,26,2.0,0,1,0,0,1,0,Female,57.0,undergraduate: 4th year,30,10,Other,0.0,0.0,0.0,Less than once a month,Less than once a month,Bonds,No,GB,1000,1000.0
316,wegg1qp3,xm39f2ij,3,Trade_ends,2021-11-17 17:39:59.899839+00:00,"{""currentPrice"": 0, ""priceIndex"": 6, ""secs_since_round_starts"": 12}",True,0.05,False,0.0,10.0,30.0,0,6,12,2.0,1,0,0,0,1,1,Female,45.0,undergraduate: 4th year,37,2,Other,1.0,1.0,1.0,Monthly,Monthly,Stocks,No,GB,12,0.0
317,u42h5vwr,xm39f2ij,5,Trade_ends,2021-11-17 17:40:00.681496+00:00,"{""currentPrice"": 15, ""priceIndex"": 5, ""secs_since_round_starts"": 12}",False,0.05,False,15.0,10.0,30.0,15,5,12,2.0,0,1,0,0,1,0,Male,36.0,undergraduate: 4th year,9,9,Other,1.0,1.0,1.0,Weekly,Daily,Stocks,No,GB,1000,1000.0
318,ius3yrmf,tcbozsj9,4,Trade_ends,2021-11-17 17:40:02.933028+00:00,"{""currentPrice"": 35, ""priceIndex"": 30, ""secs_since_round_starts"": 60}",False,0.02,False,35.0,10.0,30.0,35,30,60,2.0,0,0,1,0,1,0,Female,33.0,MBA,43,7,Finance,1.0,0.0,0.0,Less than once a month,Less than once a month,Stocks,No,US,60,1000.0
319,te4hnjkl,tcbozsj9,9,Trade_ends,2021-11-17 17:40:04.157715+00:00,"{""currentPrice"": 20, ""priceIndex"": 18, ""secs_since_round_starts"": 38}",False,0.02,False,20.0,10.0,30.0,20,18,38,2.0,0,1,0,0,1,1,Male,39.0,master,26,6,Other,0.0,1.0,1.0,Monthly,Weekly,Stocks,No,GB,1000,1000.0
320,ttx727wz,tcbozsj9,6,Trade_ends,2021-11-17 17:40:05.752039+00:00,"{""currentPrice"": 0, ""priceIndex"": 2, ""secs_since_round_starts"": 4}",True,0.05,False,0.0,10.0,30.0,0,2,4,2.0,1,0,0,0,1,0,Male,36.0,master,6,6,Other,0.0,1.0,1.0,Less than once a month,Monthly,Cryptocurrencies,No,GB,4,0.0
321,c791yh5e,xm39f2ij,8,Trade_ends,2021-11-17 17:40:06.172745+00:00,"{""currentPrice"": 17, ""priceIndex"": 6, ""secs_since_round_starts"": 15}",False,0.05,False,17.0,10.0,30.0,17,6,15,2.0,0,1,0,0,1,1,Female,55.0,undergraduate: 3d year,25,8,Other,0.0,0.0,0.0,Less than once a month,Monthly,Stocks,No,GB,1000,1000.0
322,ipnt2h1h,xm39f2ij,3,Trade_ends,2021-11-17 17:40:08.574050+00:00,"{""currentPrice"": 16, ""priceIndex"": 8, ""secs_since_round_starts"": 18}",False,0.05,False,16.0,10.0,30.0,16,8,18,2.0,0,1,0,0,1,0,Female,42.0,undergraduate: 3d year,8,8,Other,0.0,0.0,0.0,Less than once a month,Less than once a month,"Derivatives (Options, Futures)",Do not know,GB,1000,1000.0
323,04kq5q2m,xm39f2ij,3,Trade_ends,2021-11-17 17:40:09.990193+00:00,"{""currentPrice"": 11, ""priceIndex"": 3, ""secs_since_round_starts"": 8}",False,0.05,False,11.0,10.0,30.0,11,3,8,2.0,0,1,0,0,1,0,Female,39.0,high-school graduate,8,8,Other,0.0,0.0,0.0,Less than once a month,Less than once a month,Stocks,No,GB,1000,1000.0
324,1ji0cvtf,xm39f2ij,3,Trade_ends,2021-11-17 17:40:12.766714+00:00,"{""currentPrice"": 0, ""priceIndex"": 8, ""secs_since_round_starts"": 16}",True,0.05,False,0.0,10.0,30.0,0,8,16,2.0,1,0,0,0,1,1,Male,25.0,undergraduate: 4th year,29,9,Other,0.0,1.0,1.0,Monthly,Weekly,Stocks,No,CA,16,0.0
325,u42h5vwr,xm39f2ij,6,Trade_ends,2021-11-17 17:40:14.354056+00:00,"{""currentPrice"": 0, ""priceIndex"": 4, ""secs_since_round_starts"": 8}",True,0.05,False,0.0,10.0,30.0,0,4,8,2.0,1,0,0,0,1,0,Male,36.0,undergraduate: 4th year,9,9,Other,1.0,1.0,1.0,Weekly,Daily,Stocks,No,GB,8,0.0
326,1y3613px,xm39f2ij,2,Trade_ends,2021-11-17 17:40:14.596335+00:00,"{""currentPrice"": 0, ""priceIndex"": 8, ""secs_since_round_starts"": 16}",True,0.02,False,0.0,10.0,30.0,0,8,16,2.0,1,0,0,0,1,1,Female,50.0,undergraduate: 2nd year,17,7,Other,0.0,0.0,0.0,Less than once a month,Less than once a month,Stocks,No,GB,16,0.0
